time,acc_x,acc_y,acc_z,,absolute_acc
0.11847510700000001,0.046238243579864502,-0.35039505362510681,-0.80024909973144531,,0.87482186209266688
0.13523869700000002,0.053270846605300903,-0.41635176539421082,-0.53259563446044922,,0.67811848927104912
0.15200201300000002,-0.017251506447792053,-0.41654589772224426,-0.28406620025634766,,0.50448162058892487
0.16875598,0.018352925777435303,-0.1890220046043396,-0.49891376495361328,,0.5338362042512893
0.18551347900000001,0.22509777545928955,-0.2492249608039856,-0.69867610931396484,,0.77519700420639415
0.20226955200000002,0.32144257426261902,-0.041305899620056152,-0.53223800659179688,,0.62314428630359042
0.21902686600000001,0.25827357172966003,-0.088792145252227783,-0.51328563690185547,,0.58142190185976994
0.23578396700000001,0.38057863712310791,-0.07682037353515625,-0.55069255828857422,,0.67379801319013843
0.25254116900000001,0.37659856677055359,-0.10399919748306274,-0.61202049255371094,,0.72609324254977281
0.26929775100000003,0.28826954960823059,-0.1160549521446228,-0.7086181640625,,0.77376210012375957
0.28605467000000001,0.18783712387084961,-0.11916893720626831,-0.58075046539306641,,0.621896393101944
0.30281164800000004,0.12770339846611023,-0.17968839406967163,-0.533447265625,,0.57720192493261924
0.31956913600000003,0.064191251993179321,-0.12912368774414062,-0.56785297393798828,,0.58587579193828765
0.33632563700000001,-0.044778361916542053,-0.065280497074127197,-0.44438362121582031,,0.45137949421640722
0.35308284900000003,-0.15294641256332397,-0.065109491348266602,-0.37836360931396484,,0.41326852267346847
0.36983950200000004,-0.18207895755767822,-0.11464649438858032,-0.55586624145507812,,0.59605691326439358
0.38659707200000004,-0.13717123866081238,-0.16850906610488892,-0.42171287536621094,,0.47439751614539544
0.403353348,-0.17276248335838318,0.0014366507530212402,-0.43192481994628906,,0.4651967215137871
0.420110753,-0.084879398345947266,0.056274175643920898,-0.436309814453125,,0.44803744184620686
0.43686750000000002,-0.047580182552337646,0.0267486572265625,-0.44011306762695312,,0.44348492277770268
0.45362472200000004,0.00030690431594848633,-0.060968339443206787,-0.57345199584960938,,0.57668398984939895
0.47038138500000004,0.050797700881958008,-0.15080952644348145,-0.68849563598632812,,0.70664712583666434
0.48713863900000004,0.18186888098716736,-0.21530550718307495,-0.43909263610839844,,0.52176153018357729
0.50389546400000007,0.2835327684879303,-0.33335575461387634,-0.15095615386962891,,0.46293050270178598
0.52065267700000006,0.18536302447319031,-0.33827820420265198,-0.34667301177978516,,0.51862681320665127
0.53740923900000004,0.12569010257720947,-0.25432366132736206,-0.44779205322265625,,0.53009079366292189
0.55416627900000004,0.13604289293289185,-0.18428802490234375,-0.57270526885986328,,0.61681526393224528
0.57092353299999998,0.24332782626152039,-0.12549328804016113,-0.45769882202148438,,0.53333404921881922
0.58768082700000002,0.20749735832214355,-0.09087294340133667,-0.50628852844238281,,0.55465405397007972
0.60443693100000007,0.28344342112541199,-0.073174893856048584,-0.41083049774169922,,0.50445657488510742
0.62119436700000008,0.24487030506134033,-0.04895937442779541,-0.17651557922363281,,0.30580424515341431
0.63795148800000001,0.097008287906646729,0.026010751724243164,-0.36847209930419922,,0.38191472227904849
0.65470845700000002,0.10771316289901733,0.11837637424468994,-0.51709365844726562,,0.54129561521169423
0.67146522200000003,0.10881584882736206,0.089797854423522949,-0.52244758605957031,,0.54116173533848422
0.688222161,0.14614132046699524,0.021243870258331299,-0.73836708068847656,,0.75299039397313239
0.70497921000000008,0.20697659254074097,-0.03863990306854248,-0.63775634765625,,0.67161410865523208
0.721736555,0.08288295567035675,-0.14942479133605957,-0.43756008148193359,,0.46974054276052823
0.7384947850000001,-0.11140242218971252,-0.19724410772323608,-0.50037288665771484,,0.54926201707695466
0.75524832500000005,-0.32246917486190796,-0.13490700721740723,-0.64522933959960938,,0.73383047770764154
0.77200706400000008,-0.33828020095825195,-0.059760928153991699,-0.58324241638183594,,0.6768874198573237
0.78876453000000002,-0.22953444719314575,-0.001946866512298584,-0.41099643707275391,,0.47075250825033094
0.80550442,-0.16510343551635742,0.0041057467460632324,-0.45802402496337891,,0.48689014060596947
0.82228154000000009,0.031185388565063477,-0.043270766735076904,-0.63381767272949219,,0.63605796117808722
0.83903493900000004,0.19634184241294861,-0.17705494165420532,-0.67151641845703125,,0.72168751666053077
0.85579219200000001,0.25072026252746582,-0.27581802010536194,-0.73760509490966797,,0.82643663174703452
0.87255144000000007,0.3357197642326355,-0.24511057138442993,-0.80837249755859375,,0.90898462424286186
0.88930344300000008,0.36803615093231201,-0.18265366554260254,-0.65993213653564453,,0.77738239931305431
0.906062955,0.27767482399940491,-0.10487163066864014,-0.55043125152587891,,0.6253606395181468
0.92282003600000007,0.259876549243927,-0.014782249927520752,-0.63233566284179688,,0.68381483331485693
0.93957369800000001,0.36755949258804321,-0.019485235214233398,-0.54574871063232422,,0.65827145626996331
0.95633374900000001,0.34914928674697876,-0.1057935357093811,-0.42630958557128906,,0.56110369753173106
0.97309094200000001,0.26807001233100891,-0.17224800586700439,-0.58444499969482422,,0.6656627259390373
0.98984826600000009,0.23272904753684998,-0.25707548856735229,-0.56094074249267578,,0.65947337548818952
1.00660437,0.11133861541748047,-0.33168181777000427,-0.53735542297363281,,0.64121756535630536
1.0233619090000001,0.018835097551345825,-0.27391132712364197,-0.65301704406738281,,0.70838791341249296
1.040118825,0.027205526828765869,-0.17181098461151123,-0.57257461547851562,,0.59841527839250364
1.0568759170000002,0.067848682403564453,-0.081232190132141113,-0.49637889862060547,,0.50753731233611721
1.073632315,0.13000820577144623,-0.016052782535552979,-0.43438339233398438,,0.45370558397558286
1.090389762,0.15687680244445801,-0.0018867850303649902,-0.41998195648193359,,0.44832882449530398
1.1071465890000001,0.22814035415649414,-0.01129913330078125,-0.49104404449462891,,0.54157173600700625
1.123904859,0.23108676075935364,0.04947274923324585,-0.56280899047851562,,0.61041183120774478
1.1406596720000002,0.2683795690536499,0.10399717092514038,-0.62040042877197266,,0.68391497765899467
1.1574174740000001,0.37506541609764099,0.101573646068573,-0.56747341156005859,,0.68776256422967075
1.174174636,0.3577558696269989,-0.0023667216300964355,-0.44807529449462891,,0.57338149007470851
1.1909292550000001,0.23952081799507141,-0.05968928337097168,-0.52546787261962891,,0.58055965925800157
1.207690771,0.1666257381439209,-0.13821494579315186,-0.46843814849853516,,0.51604438454588974
1.2244454,-0.0039495378732681274,-0.217765212059021,-0.51241302490234375,,0.55678038266635499
1.2412026010000001,-0.010077506303787231,-0.21186065673828125,-0.68493080139160156,,0.71701931403681185
1.2579594190000001,0.12891152501106262,-0.18853944540023804,-0.51231193542480469,,0.56091783973342868
1.274716325,0.20597714185714722,-0.20421046018600464,-0.43098545074462891,,0.51949682748845549
1.291473294,0.25529834628105164,-0.15830135345458984,-0.56908416748046875,,0.64350085765003684
1.308230212,0.21657335758209229,-0.10654950141906738,-0.58405113220214844,,0.63195928705387672
1.3249876380000001,0.20701679587364197,-0.094729781150817871,-0.60322475433349609,,0.64475560443580304
1.341744128,0.2326013445854187,-0.032667160034179688,-0.50271797180175781,,0.55488367070956091
1.3585014740000001,0.16741278767585754,0.035472869873046875,-0.41228675842285156,,0.44639190981160787
1.3752581480000001,0.14346703886985779,0.12230563163757324,-0.52235889434814453,,0.5553379811222775
1.39201536,0.19474437832832336,0.10881274938583374,-0.46040153503417969,,0.51160058715878975
1.408772084,0.16582190990447998,0.029611587524414062,-0.38397121429443359,,0.41929422286364421
1.4255292980000001,0.15466231107711792,-0.010434865951538086,-0.52688503265380859,,0.54921503487226819
1.4422731830000002,0.25494140386581421,-0.06780010461807251,-0.59343528747558594,,0.64942852879475899
1.4590432550000001,0.29150170087814331,-0.18137067556381226,-0.32571506500244141,,0.47324292613716773
1.475799928,0.029467225074768066,-0.22064334154129028,-0.59434890747070312,,0.63466717681926166
1.492557192,0.14603680372238159,-0.21793603897094727,-0.75192546844482422,,0.79637602627136128
1.509313753,0.31306517124176025,-0.2914760410785675,-0.38387775421142578,,0.57474360731188234
1.526071527,0.27411490678787231,-0.32559362053871155,-0.39829444885253906,,0.58291393519590717
1.5428278740000001,0.27821654081344604,-0.17427045106887817,-0.61838626861572266,,0.7001258536223518
1.5595851570000001,0.28940659761428833,-0.033194065093994141,-0.29365253448486328,,0.41363007108952649
1.5763415870000002,0.19412228465080261,0.079813301563262939,-0.37073993682861328,,0.42603019290205213
1.593101302,0.20098148286342621,0.17862015962600708,-0.60043716430664062,,0.65789323310047942
1.609854181,0.22679857909679413,0.15370243787765503,-0.42842292785644531,,0.5085353871688264
1.6266129,0.23672562837600708,0.048878610134124756,-0.42332744598388672,,0.48747745402418324
1.643370153,0.22887945175170898,-0.098319053649902344,-0.52417945861816406,,0.58035897906554945
1.6601272950000001,0.1654944121837616,-0.21863070130348206,-0.51021289825439453,,0.57922792194580042
1.6768834190000002,0.096714794635772705,-0.20428800582885742,-0.51530933380126953,,0.56269978703539525
1.6936406940000002,-0.046189680695533752,-0.11211287975311279,-0.44487857818603516,,0.46110707404909707
1.7103978350000002,-0.25353986024856567,0.025769352912902832,-0.54667186737060547,,0.6031555776571057
1.727155129,-0.20513734221458435,0.10110324621200562,-0.50865554809570312,,0.55770391981230427
1.7439116200000002,-0.20947843790054321,0.023309648036956787,-0.19771480560302734,,0.28899083028965028
1.760668517,-0.2116253525018692,-0.036519467830657959,-0.34041500091552734,,0.40249389337043778
1.7774255570000002,0.07565733790397644,-0.034311354160308838,-0.51603889465332031,,0.52268292740250399
1.7941830030000001,0.20032364130020142,-0.027761995792388916,-0.41940116882324219,,0.46561532415122475
1.8109398600000002,0.33614760637283325,-0.035183727741241455,-0.54248809814453125,,0.63916073455463895
1.827696666,0.448830246925354,-0.056296110153198242,-0.63218307495117188,,0.77735016744590357
1.8444534920000002,0.35551860928535461,-0.093981683254241943,-0.62252712249755859,,0.7230256265033651
1.8611975820000002,0.34633669257164001,-0.13602179288864136,-0.59901618957519531,,0.70517475006929276
1.877967358,0.23852863907814026,-0.20370712876319885,-0.39912700653076172,,0.50763655631920646
1.8947246110000002,0.064850717782974243,-0.23978701233863831,-0.29467487335205078,,0.38540460281151862
1.9114814880000002,-0.0033208727836608887,-0.17412054538726807,-0.43414402008056641,,0.46777133590432857
1.928238549,0.047339111566543579,-0.039609014987945557,-0.38638210296630859,,0.39128122245373859
1.9449953440000001,0.1227385401725769,0.060194313526153564,-0.35754871368408203,,0.38279131035294128
1.9617525470000001,0.18459635972976685,0.10344088077545166,-0.46255207061767578,,0.50865533504897209
1.9785063310000002,0.3171176016330719,0.036252498626708984,-0.54259300231933594,,0.62951170210576879
1.9952697490000002,0.33982276916503906,-0.051681339740753174,-0.52840900421142578,,0.63037016986220495
2.0120242560000001,0.27113473415374756,-0.16714602708816528,-0.42807102203369141,,0.53356971272829024
2.0287804010000001,0.24386629462242126,-0.22336617112159729,-0.33718204498291016,,0.472286933455976
2.0455373690000003,0.13369747996330261,-0.12654244899749756,-0.49576473236083984,,0.52883899005239499
2.0622947250000001,0.17209041118621826,-0.0015116333961486816,-0.58693313598632812,,0.61164360601293921
2.0790508390000002,0.22403621673583984,0.059414327144622803,-0.41481876373291016,,0.47518090810159491
2.095808173,0.14971023797988892,0.012928426265716553,-0.38594913482666016,,0.41417029617676659
2.1125653250000003,0.17643415927886963,-0.049391090869903564,-0.58698272705078125,,0.6149123630841492
2.1293225680000001,0.21073809266090393,-0.09334409236907959,-0.45814704895019531,,0.51285707730354624
2.1460790490000003,0.15663939714431763,-0.11132502555847168,-0.46789360046386719,,0.50581971433344763
2.162836038,0.12564188241958618,-0.1219145655632019,-0.52055168151855469,,0.54920223692752401
2.1795929750000003,0.063590258359909058,-0.1605333685874939,-0.45839309692382812,,0.48983559966150503
2.1963517860000001,0.030470132827758789,-0.12260079383850098,-0.60273456573486328,,0.61583142204337549
2.213106995,0.093890130519866943,-0.093230128288269043,-0.60716915130615234,,0.62141901461696369
2.22986379,0.12026476860046387,-0.08768540620803833,-0.45887374877929688,,0.48240798329542295
2.2466209310000003,0.18889549374580383,-0.10274112224578857,-0.35820198059082031,,0.41778691297954929
2.2633650730000001,0.14056229591369629,-0.046685636043548584,-0.41539382934570312,,0.44100945693239657
2.2801347760000001,0.12705978751182556,0.081719756126403809,-0.61212444305419922,,0.63049079448341094
2.2968920820000003,0.23091727495193481,0.17381751537322998,-0.65468120574951172,,0.71564152875820797
2.3136487960000003,0.32778674364089966,0.1757805347442627,-0.50632095336914062,,0.62825460883492079
2.3304062110000001,0.32058244943618774,0.080537140369415283,-0.43432331085205078,,0.54579856743571242
2.3471626919999999,0.25723335146903992,-0.057795047760009766,-0.63464260101318359,,0.6872266697926932
2.363916701,0.26497459411621094,-0.1495283842086792,-0.52473640441894531,,0.60656291292299769
2.380680108,0.22353872656822205,-0.18239328265190125,-0.40021896362304688,,0.49336810869348297
2.397433913,0.19630652666091919,-0.16296786069869995,-0.51963233947753906,,0.57888906040906096
2.4141906580000003,0.23003718256950378,-0.084932684898376465,-0.48618507385253906,,0.54452418896276866
2.4309478090000001,0.14646261930465698,0.022896170616149902,-0.43000316619873047,,0.45483871473677101
2.4477018080000001,0.18715918064117432,0.13589906692504883,-0.53991985321044922,,0.58737599813081198
2.4644648810000001,0.34007570147514343,0.15629541873931885,-0.48170089721679688,,0.61001270071382696
2.481218186,0.32706958055496216,0.064536511898040771,-0.44266700744628906,,0.55416022175343638
2.4979757760000001,0.31154415011405945,-0.066372096538543701,-0.53832340240478516,,0.62550547419337399
2.5147327349999999,0.23745617270469666,-0.17880833148956299,-0.41871833801269531,,0.51350063286597603
2.531490008,0.084747612476348877,-0.23776808381080627,-0.45283126831054688,,0.5184322299580173
2.5482462140000002,0.14537706971168518,-0.20369294285774231,-0.615142822265625,,0.66409788371362999
2.5650034070000003,0.19730761647224426,-0.12208718061447144,-0.46774196624755859,,0.52212845371372074
2.5817605780000004,0.19951018691062927,-0.039753854274749756,-0.42480278015136719,,0.47100115247751045
2.5985178320000002,0.22477903962135315,0.034625828266143799,-0.44388866424560547,,0.49876017371273962
2.6152742920000001,0.12073135375976562,0.053616464138031006,-0.29600429534912109,,0.32414399249787146
2.6320313720000001,0.072686344385147095,-0.014831781387329102,-0.28636074066162109,,0.29581372549540352
2.648792582,0.010866522789001465,-0.046601235866546631,-0.47319221496582031,,0.4756055390826231
2.6655456860000002,0.04420134425163269,-0.049506068229675293,-0.56934356689453125,,0.57319866258514607
2.6823022070000002,0.084102272987365723,-0.076995551586151123,-0.5643768310546875,,0.57578009232434246
2.6990595000000002,0.080421090126037598,-0.1005934476852417,-0.44965553283691406,,0.46773570706662199
2.7158161340000002,0.077840119600296021,-0.082892656326293945,-0.33522605895996094,,0.35398698746994173
2.7325736310000002,0.13554462790489197,-0.073092997074127197,-0.26252555847167969,,0.30435932912598768
2.7493301020000001,0.075913101434707642,-0.00010138750076293945,-0.34409332275390625,,0.35236773974455354
2.7660873350000004,0.17169439792633057,0.04714500904083252,-0.48200130462646484,,0.51383545597628766
2.7828441610000003,0.3073728084564209,0.048508763313293457,-0.42378902435302734,,0.5257644726098023
2.7995883830000001,0.31559523940086365,0.028100788593292236,-0.47614002227783203,,0.57192598320655774
2.8163579860000003,0.39681020379066467,0.016061246395111084,-0.64767837524414062,,0.75973915209566711
2.8331151380000001,0.4482932984828949,-0.04283517599105835,-0.57543182373046875,,0.7307007031121785
2.8498720350000002,0.3414100706577301,-0.11422407627105713,-0.51875019073486328,,0.63143466513484159
2.8666292270000002,0.28539887070655823,-0.14432287216186523,-0.41354274749755859,,0.52278027013025108
2.8833856260000004,0.18503758311271667,-0.1322818398475647,-0.37584400177001953,,0.43931322081648616
2.9001431340000003,0.22917163372039795,-0.085596919059753418,-0.48112773895263672,,0.5397502861919341
2.916900225,0.30357354879379272,-0.034132003784179688,-0.43325614929199219,,0.5301252532269195
2.9336570210000001,0.34220442175865173,-0.029043018817901611,-0.4707489013671875,,0.58271081279794712
2.9504136330000001,0.45616039633750916,-0.034342110157012939,-0.57058238983154297,,0.73131795499816954
2.9671710500000001,0.3620779812335968,-0.060462355613708496,-0.55705738067626953,,0.66713498357263634
2.983927773,0.22778028249740601,-0.053039252758026123,-0.66816806793212891,,0.70791636965949722
3.000685281,0.22633799910545349,-0.04170536994934082,-0.54911994934082031,,0.59539982069676234
3.0174357400000003,0.10200899839401245,-0.092779338359832764,-0.36343479156494141,,0.3887141483142727
3.0342102870000001,0.10516926646232605,-0.081245541572570801,-0.35394287109375,,0.3780700578354903
3.0509558510000003,0.09330710768699646,-0.036662399768829346,-0.32044792175292969,,0.33576363480504251
3.0677130750000003,0.10909298062324524,0.015089929103851318,-0.42082405090332031,,0.43499639791646938
3.0844695040000003,0.25673395395278931,0.08239513635635376,-0.50620841979980469,,0.57354009963003494
3.101226574,0.3041529655456543,0.067417800426483154,-0.48218345642089844,,0.57406887383881522
3.1179837670000001,0.26305404305458069,0.020547330379486084,-0.51582050323486328,,0.57938796493416445
3.1347407760000001,0.16371315717697144,-0.066876530647277832,-0.51147365570068359,,0.54118367368213305
3.151497693,0.092855989933013916,-0.14219215512275696,-0.51733684539794922,,0.54449816845531795
3.1682544290000001,0.09532049298286438,-0.1545652449131012,-0.48896503448486328,,0.52159679472397713
3.185011448,0.044599592685699463,-0.15375134348869324,-0.33600997924804688,,0.37219793853080557
3.2017690270000001,0.027177929878234863,-0.15311190485954285,-0.22586727142333984,,0.27422239073862775
3.2185253540000001,0.021973609924316406,-0.10009080171585083,-0.43620109558105469,,0.44807633714283573
3.2352860460000001,0.079988270998001099,-0.0028626918792724609,-0.57967472076416016,,0.58517441878046272
3.2520357820000001,0.18473905324935913,0.043783247470855713,-0.40260028839111328,,0.44512075077126129
3.2687966160000004,0.23404374718666077,0.024946153163909912,-0.30194950103759766,,0.38284760327277095
3.2855529950000002,0.24896770715713501,0.018237650394439697,-0.36826515197753906,,0.44490083531055624
3.302310635,0.19289690256118774,0.017714023590087891,-0.26851749420166016,,0.33109612855149656
3.3190676440000004,0.057085812091827393,0.017989099025726318,-0.27876567840576172,,0.2851187490905594
3.3358243790000004,0.10887876152992249,0.046200811862945557,-0.46484470367431641,,0.47965581228955001
3.3525809100000004,0.16066324710845947,0.030038177967071533,-0.45065116882324219,,0.47937610189575547
3.3693384280000003,0.14071407914161682,-0.03885185718536377,-0.41248893737792969,,0.43755804453192115
3.3860951940000001,0.11329835653305054,-0.1010059118270874,-0.34075164794921875,,0.37302868173535919
3.4028523450000003,0.014045476913452148,-0.16927275061607361,-0.321685791015625,,0.36377505090949563
3.4196089570000003,-0.00039643049240112305,-0.1475575864315033,-0.35538482666015625,,0.38480095307950468
3.4363661400000001,0.00064349174499511719,-0.090196192264556885,-0.24603366851806641,,0.26204643333788874
3.4531233210000001,0.048474252223968506,-0.042693734169006348,-0.18843269348144531,,0.19919685750191699
3.5369080940000002,0.25642234086990356,0.058147847652435303,-0.30104637145996094,,0.39970302332234192
3.5536646250000001,0.20624411106109619,-0.02317124605178833,-0.43058490753173828,,0.47799257586817173
3.5704220510000004,0.16183930635452271,-0.10963916778564453,-0.52692031860351562,,0.56201221548225455
3.5871788580000001,0.04520067572593689,-0.18364730477333069,-0.35576343536376953,,0.40291072904356984
3.6039363750000004,-0.075299128890037537,-0.20792725682258606,-0.16985988616943359,,0.27884777903160191
3.6206925090000004,-0.19894921779632568,-0.16577240824699402,-0.084193229675292969,,0.27230457675355829
3.6374497630000002,-0.2342238575220108,-0.052373170852661133,-0.22827053070068359,,0.33122680997169446
3.6541937310000003,-0.046873122453689575,0.08225780725479126,-0.42390823364257812,,0.43435196213772947
3.6709641880000001,0.13548803329467773,0.11045318841934204,-0.53271770477294922,,0.56066484371379788
3.6877205670000004,0.2776721715927124,0.018086135387420654,-0.55588817596435547,,0.62164347285823174
3.7044776980000003,0.22624373435974121,-0.13839420676231384,-0.45053195953369141,,0.52279846055978296
3.721234565,-0.0036293864250183105,-0.26028558611869812,-0.40342140197753906,,0.48011518030624639
3.7379919110000004,-0.15283815562725067,-0.21334299445152283,-0.39477157592773438,,0.47404570692871922
3.7547485530000002,-0.19319392740726471,-0.054878413677215576,-0.26152992248535156,,0.32974753104453269
3.7715057650000001,-0.13431096076965332,0.12354320287704468,-0.19492721557617188,,0.26701868199110218
3.7882625620000003,-0.0024581253528594971,0.23810875415802002,-0.27048873901367188,,0.36036922610031658
3.8050199880000002,0.13321042060852051,0.20167982578277588,-0.32675266265869141,,0.4064321232887656
3.8217764070000002,0.21424669027328491,0.049380064010620117,-0.4397430419921875,,0.49164415789806004
3.8385337010000002,0.27229177951812744,-0.13254699110984802,-0.53449440002441406,,0.61432546887043604
3.8552904460000001,0.2226698100566864,-0.27839058637619019,-0.47240924835205078,,0.59182232200391816
3.8720476180000003,0.10147282481193542,-0.31018763780593872,-0.43999290466308594,,0.54782009909896645
3.8888042610000002,0.053694993257522583,-0.21734622120857239,-0.30225944519042969,,0.37614266493100385
3.9055613310000004,0.034976989030838013,-0.10638177394866943,-0.14494895935058594,,0.18316842633747493
3.9223186160000001,0.098361879587173462,0.0056077241897583008,-0.225433349609375,,0.24602174912517941
3.9390555030000001,0.14075201749801636,0.075773954391479492,-0.30169296264648438,,0.3414256380301528
3.9558319940000004,0.14805248379707336,0.069607019424438477,-0.36362552642822266,,0.39873324238372559
3.9725766020000002,0.16603550314903259,0.023789465427398682,-0.43955802917480469,,0.47047315330772305
3.9893461130000003,0.11204007267951965,-0.032647907733917236,-0.32071304321289062,,0.34128539355253379
4.0061037440000007,0.010049283504486084,-0.054300963878631592,-0.29291534423828125,,0.2980754630413795
4.022859908,0.0057458877563476562,-0.04457557201385498,-0.3603515625,,0.36314356037614426
4.0396040490000003,-0.03318709135055542,-0.028300344944000244,-0.30312633514404297,,0.30624804915969372
4.0563743240000001,-0.013439565896987915,-0.010757148265838623,-0.32683372497558594,,0.32728675798407986
4.0731315669999999,-0.01234668493270874,-0.011355400085449219,-0.38869762420654297,,0.38905941551868284
4.0898879150000003,0.011637896299362183,-0.056772291660308838,-0.43097686767578125,,0.43485583151461327
4.1066450159999999,0.063634753227233887,-0.091198921203613281,-0.44046497344970703,,0.45428627305152525
4.1234023610000001,0.095451027154922485,-0.10369986295700073,-0.55471134185791016,,0.57233664302404552
4.1401594410000007,0.2222762405872345,-0.07060539722442627,-0.54045486450195312,,0.58862832909284757
4.1569158910000006,0.20148846507072449,-0.087833046913146973,-0.22432708740234375,,0.3140619171899427
4.1736729510000004,0.082053482532501221,-0.098971366882324219,-0.37748813629150391,,0.39877988728006347
4.1904299300000005,0.18281471729278564,-0.035154461860656738,-0.62557888031005859,,0.65269134553595864
4.2071872950000007,0.22240719199180603,-0.012253999710083008,-0.41964149475097656,,0.47509378408416236
4.2239438260000002,0.25042715668678284,0.010958075523376465,-0.43352985382080078,,0.50078136384982164
4.2407011200000007,0.31810164451599121,0.038625776767730713,-0.57154083251953125,,0.65524005533224805
4.2574577540000007,0.29640048742294312,-0.012708485126495361,-0.49512100219726562,,0.57719975862399087
4.2742150780000001,0.27320349216461182,-0.060048162937164307,-0.51913833618164062,,0.5897037748704933
4.2909717000000001,0.27019175887107849,-0.073667824268341064,-0.47612476348876953,,0.55238150340277947
4.3077290260000005,0.20577386021614075,-0.10708576440811157,-0.37151241302490234,,0.43798597639502918
4.3244860960000002,0.093433141708374023,-0.10356128215789795,-0.45312595367431641,,0.47410739397835128
4.3412431250000001,0.026074528694152832,-0.065473377704620361,-0.54981803894042969,,0.55431626367893438
4.3579994430000006,0.085624366998672485,-0.046546638011932373,-0.54528999328613281,,0.55393077050487816
4.3747568590000006,0.16760623455047607,-0.056090176105499268,-0.37716007232666016,,0.41651852044439347
4.3915137470000003,0.066261440515518188,-0.08111882209777832,-0.30089664459228516,,0.31860576348305208
4.4082710610000007,0.057511240243911743,-0.070200324058532715,-0.46835994720458984,,0.47707092596154099
4.4250273680000003,0.11011448502540588,-0.051936149597167969,-0.32480621337890625,,0.34687409776017197
4.441784642,0.030678272247314453,-0.0089192986488342285,-0.24785804748535156,,0.24990862726148177
4.45854163,0.11966884136199951,0.093896627426147461,-0.44871902465820312,,0.47379950540828686
4.4752989250000006,0.18168887495994568,0.10896784067153931,-0.42502593994140625,,0.4749019764202973
4.4920553850000005,0.19724705815315247,0.070376932621002197,-0.37181472778320312,,0.42673821763665792
4.5088123740000006,0.19274145364761353,0.031186282634735107,-0.32367801666259766,,0.37800702460324936
4.5255696070000004,0.12533086538314819,-0.064583063125610352,-0.35695934295654297,,0.38379521933492378
4.5423213980000003,0.1890207827091217,-0.11029672622680664,-0.41442108154296875,,0.46865665144065127
4.5590801360000004,0.1683858335018158,-0.11244785785675049,-0.26110553741455078,,0.33041551314854234
4.5758435140000007,0.18997707962989807,-0.07107245922088623,-0.27027511596679688,,0.33792191931757648
4.5925972680000005,0.30152019858360291,-0.023336946964263916,-0.35094356536865234,,0.46327144237603268
4.6093546320000005,0.3155665397644043,-0.030557394027709961,-0.32711219787597656,,0.45554185905127986
4.6261112560000006,0.32182818651199341,-0.0061124563217163086,-0.45645904541015625,,0.55853881144700623
4.6428683370000003,0.34578731656074524,-0.014971911907196045,-0.44714164733886719,,0.56544555814450759
4.6596205840000007,0.25170895457267761,-0.063663184642791748,-0.21336555480957031,,0.33605841585969576
4.6763871770000005,0.096808254718780518,-0.05301433801651001,-0.22841644287109375,,0.25368569055212536
4.6931390589999999,0.081665456295013428,0.0035494565963745117,-0.38671302795410156,,0.39525790489683066
4.7098963220000005,0.16867536306381226,0.049929916858673096,-0.22418308258056641,,0.28496039938480566
4.7266531390000006,0.1608731746673584,0.070189177989959717,-0.12801933288574219,,0.21724559518427783
4.7434102290000002,0.20764267444610596,0.080956876277923584,-0.33764743804931641,,0.40456802702274625
4.7601668620000002,0.24479073286056519,0.050611197948455811,-0.32343769073486328,,0.40877369783303258
4.7769244720000001,0.20603474974632263,-0.0019901394844055176,-0.31405544281005859,,0.37561296558667828
4.7936811860000006,0.21398019790649414,-0.019054651260375977,-0.36688995361328125,,0.42515743306816667
4.8104381140000001,0.1537737250328064,-0.050238907337188721,-0.30500221252441406,,0.34524868713101231
4.8271948690000004,0.11080428957939148,-0.084342479705810547,-0.32449626922607422,,0.35311339993514768
4.8439520200000006,0.098336935043334961,-0.088393807411193848,-0.29650211334228516,,0.3246492279350216
4.8607091010000003,0.12945950031280518,-0.087228536605834961,-0.16641616821289062,,0.22817300642779328
4.8774660910000005,0.17934560775756836,-0.038722455501556396,-0.12766647338867188,,0.22352405689209839
4.8942224890000006,0.16550156474113464,0.039507806301116943,-0.27099514007568359,,0.31998437561095061
4.9109812270000006,0.25285664200782776,0.10530287027359009,-0.2902069091796875,,0.39905541724296728
4.9277356130000003,0.28974446654319763,0.07811659574508667,-0.18492031097412109,,0.35249053864461261
4.944494229,0.23090058565139771,0.027368485927581787,-0.21842288970947266,,0.31901829606648446
4.9612503740000005,0.16496223211288452,-0.01240694522857666,-0.35758781433105469,,0.39399938486199559
4.978007871,0.19546976685523987,-0.069507062435150146,-0.28150272369384766,,0.3496904987697842
4.9947648500000001,0.13881593942642212,-0.089033126831054688,-0.042105674743652344,,0.17020473130254932
5.0115221029999999,0.053324401378631592,-0.029037058353424072,-0.10919761657714844,,0.1249430350453337
5.0282785640000007,0.17922133207321167,0.069383442401885986,-0.34302806854248047,,0.39319537606337251
5.0450355120000001,0.3315456211566925,0.09580838680267334,-0.14678668975830078,,0.37503076964444848
5.061792734,0.29417496919631958,0.054061591625213623,-0.15106296539306641,,0.33508444861564929
5.078549947,0.38921713829040527,0.014750480651855469,-0.48071861267089844,,0.61870666877500724
5.0953094380000001,0.37867695093154907,-0.068933308124542236,-0.24686145782470703,,0.45726208403403351
5.1120605380000006,0.14900213479995728,-0.12002816796302795,-0.085062980651855469,,0.20938984683332529
5.1288203130000003,0.077008485794067383,-0.054797351360321045,-0.20553970336914062,,0.22622914547307091
5.1455779230000003,0.011425703763961792,-0.01291811466217041,-0.096369743347167969,,0.097900724337084549
5.1623343120000005,-0.0010575950145721436,0.04562532901763916,-0.18252658843994141,,0.1881455411183226
5.1790916469999999,0.13403898477554321,0.11217695474624634,-0.39230728149414062,,0.42948238814778261
5.1958497350000004,0.28838920593261719,0.081208765506744385,-0.31480121612548828,,0.43458371272708929
5.2126042720000001,0.31346884369850159,-0.016908705234527588,-0.27548980712890625,,0.41766404455531686
5.2293622160000002,0.2191196084022522,-0.056970536708831787,-0.44300270080566406,,0.49750420878658042
5.2461194710000001,0.25717204809188843,-0.02547144889831543,-0.38127613067626953,,0.46060584543861777
5.2628762050000004,0.23870196938514709,-0.013473331928253174,-0.04700469970703125,,0.24365878325261492
5.2796334480000002,0.13108366727828979,0.049049913883209229,-0.0759429931640625,,0.15923617707604157
5.2963896950000002,0.22481948137283325,0.11752259731292725,-0.31453227996826172,,0.40408651948061708
5.313147152,0.31096887588500977,0.091679871082305908,-0.24759292602539062,,0.40793271203553827
5.3299043639999999,0.29329723119735718,0.023344993591308594,-0.14670085906982422,,0.32876951897284923
5.3466612930000004,0.25831064581871033,-0.050707817077636719,-0.28953075408935547,,0.39131027333767909
5.3634177010000004,0.19918867945671082,-0.12891516089439392,-0.34762477874755859,,0.42087793424153852
5.380175199,0.10575595498085022,-0.14068028330802917,-0.19578361511230469,,0.26326125440706621
5.3969321580000003,0.067205458879470825,-0.063586533069610596,-0.06722259521484375,,0.11436213620963741
5.4136893090000004,0.096360683441162109,0.025895953178405762,-0.081315994262695312,,0.12871780229322102
5.4304457070000005,0.12666112184524536,0.10659950971603394,-0.12415409088134766,,0.20693171226607301
5.447202871,0.15253084897994995,0.14179658889770508,-0.17648601531982422,,0.27298213516096309
5.4639598490000001,0.23660483956336975,0.13558638095855713,-0.38624668121337891,,0.47281287583418924
5.4807173860000002,0.3150646984577179,0.079965710639953613,-0.43369770050048828,,0.54199075131575514
5.4974738480000003,0.21686682105064392,-0.032460033893585205,-0.15700721740722656,,0.26969638149397707
5.5142307740000005,0.060084611177444458,-0.13989052176475525,-0.066851615905761719,,0.16627885352374677
5.5309669920000006,-0.018791437149047852,-0.13455930352210999,-0.22507381439208984,,0.26290216088782314
5.5477448140000005,0.064786046743392944,-0.05044400691986084,-0.10546112060546875,,0.13365581785365457
5.5645014980000003,0.14413034915924072,0.03918987512588501,0.053194999694824219,,0.15855318304493118
5.5812590350000004,0.21069222688674927,0.10824567079544067,-0.13675594329833984,,0.27351513256832993
5.5980157200000003,0.28489929437637329,0.12660694122314453,-0.33754730224609375,,0.45949440339970621
5.6147729430000002,0.33786317706108093,0.072291016578674316,-0.28925895690917969,,0.45060876782855896
5.6315295949999999,0.29258498549461365,-0.0029352307319641113,-0.23674869537353516,,0.3763834933646853
5.6482868590000006,0.21623742580413818,-0.045877456665039062,-0.30474662780761719,,0.37647559350981447
5.6650435330000004,0.16047674417495728,-0.066436111927032471,-0.1569366455078125,,0.23408471349539395
5.6818006850000007,0.020093023777008057,-0.05787968635559082,-0.033120155334472656,,0.069647199416089767
5.6985575810000002,0.048811018466949463,0.014468252658843994,-0.22901821136474609,,0.23460858252734179
5.7153144790000008,0.19668766856193542,0.067460477352142334,-0.22811698913574219,,0.30866537820310364
5.7320717430000006,0.23367190361022949,0.038909196853637695,-0.22291469573974609,,0.32528056461056365
5.7488287010000008,0.28919455409049988,0.030666649341583252,-0.30344104766845703,,0.42029799298542159
5.76558511,0.27439913153648376,0.0044664740562438965,-0.13597393035888672,,0.3062739664348163
5.7823424760000002,0.1801629364490509,-0.0056487917900085449,-0.093661308288574219,,0.20313304307512101
5.7990878270000001,0.14769500494003296,0.025290131568908691,-0.089757919311523438,,0.17467080270652854
5.8158573600000008,0.054233133792877197,0.039678275585174561,-0.070717811584472656,,0.097553099539205587
5.8326132290000006,0.14947152137756348,0.037372827529907227,-0.31898975372314453,,0.35424980863912403
5.8493704720000004,0.22327432036399841,0.02309340238571167,-0.20405006408691406,,0.30334989042626592
5.8661272890000005,0.11738717555999756,-0.039688229560852051,0.04039764404296875,,0.13033370322311488
5.8828845420000002,0.077965676784515381,-0.064003705978393555,-0.10368728637695312,,0.144658820994962
5.8996408990000004,0.076742559671401978,-0.013010323047637939,-0.14707088470458984,,0.16639872024301555
5.9163981850000003,0.12758007645606995,0.06074601411819458,-0.06090545654296875,,0.15387081846955908
5.9331553250000004,0.23038965463638306,0.10599255561828613,-0.16523838043212891,,0.30268388985507688
5.9499125890000002,0.29695037007331848,0.052310824394226074,-0.11651325225830078,,0.32325111382219673
5.9666687340000006,0.20286506414413452,-0.042923152446746826,-0.093062400817871094,,0.22728229520170853
5.9834260889999999,0.13424623012542725,-0.079387903213500977,-0.27996253967285156,,0.3204738883272682
6.0001831490000006,0.12828940153121948,-0.038604855537414551,-0.21818351745605469,,0.25603232746237264
6.0169402610000002,0.1218934953212738,-0.0028974413871765137,-0.099278450012207031,,0.15723431560908011
6.0336971160000008,0.14416664838790894,0.047809302806854248,-0.12305068969726562,,0.19547691469135992
6.0504409219999999,0.13836103677749634,0.079200446605682373,-0.055697441101074219,,0.16887478256356356
6.0672108500000004,0.16890239715576172,0.06808006763458252,0.012513160705566406,,0.18253628287257118
6.0839682770000003,0.20968154072761536,0.060676932334899902,-0.13044548034667969,,0.25429129356381164
6.1007248990000003,0.31420379877090454,0.067425787448883057,-0.31643199920654297,,0.45099830830837784
6.1174818690000006,0.35525530576705933,0.025589823722839355,-0.19238662719726562,,0.40481327260621341
6.1342387860000001,0.16376185417175293,-0.041173219680786133,-0.02101898193359375,,0.17016161876926739
6.150995988,0.056461185216903687,-0.048511505126953125,-0.065043449401855469,,0.098852829377168744
6.1677524690000007,0.034065932035446167,-0.041753530502319336,-0.079731941223144531,,0.096234232402314726
6.1845098860000007,0.062978386878967285,-0.0012553930282592773,-0.084446907043457031,,0.10535242443692766
6.2012669650000003,0.16979789733886719,0.041853547096252441,-0.059401512145996094,,0.18469321858278831
6.2180239550000005,0.18983495235443115,0.022187113761901855,-0.020498275756835938,,0.19222319439000074
6.2347792850000001,0.18263506889343262,-0.009658515453338623,-0.15430641174316406,,0.23928920580653473
6.2515378510000001,0.19032678008079529,-0.0099363923072814941,-0.17381095886230469,,0.25794042825552066
6.2682947790000005,0.15297675132751465,-0.0090447068214416504,-0.092926979064941406,,0.17921806997717096
6.28505191,0.10575377941131592,0.014869630336761475,-0.12264537811279297,,0.16262489519922577
6.3018081770000007,0.028431922197341919,0.041518270969390869,-0.098954200744628906,,0.11101384989780232
6.3185656530000003,0.011857718229293823,0.070381760597229004,-0.099461555480957031,,0.12242058129686559
6.3353227240000001,0.099209338426589966,0.092176973819732666,-0.050566673278808594,,0.14455475011251315
6.3520799570000008,0.11722838878631592,0.061428844928741455,0.11779212951660156,,0.17717500925009386
6.3688361520000001,0.1138765811920166,0.024109303951263428,-0.019641876220703125,,0.11804633659061928
6.3855933050000004,0.2312149703502655,0.021520912647247314,-0.2390594482421875,,0.3332760597299238
6.4023457370000001,0.32618847489356995,-0.00026780366897583008,-0.19129467010498047,,0.37814368126781062
6.419104709,0.3765697181224823,-0.021516144275665283,-0.11409187316894531,,0.39406173703435826
6.4358673030000002,0.26259142160415649,-0.031316936016082764,-0.21544647216796875,,0.34110436460290366
6.45262124,0.16457152366638184,-0.032822847366333008,-0.22631168365478516,,0.28174120016385895
6.4693785440000005,0.018906146287918091,-0.038940131664276123,-0.14126873016357422,,0.14775192162378148
6.4861349640000006,-0.021643877029418945,-0.035099685192108154,-0.1556854248046875,,0.16105401829841351
6.5028930010000003,0.026026070117950439,-0.023866653442382812,-0.13158893585205078,,0.13624471186434509
6.5196491960000005,0.088018149137496948,-0.016713798046112061,-0.059454917907714844,,0.10752410374483475
6.5364060320000004,0.13622114062309265,0.023145020008087158,-0.067838668823242188,,0.15392847719489941
6.5531636320000004,0.20479881763458252,0.095656991004943848,-0.16302204132080078,,0.27869158865858112
6.5699200400000004,0.28949350118637085,0.13472592830657959,-0.16757297515869141,,0.36060818763687041
6.5866772340000006,0.26628571748733521,0.12487465143203735,-0.16280746459960938,,0.33616667359714703
6.6034341210000003,0.20829969644546509,0.070817410945892334,-0.16314411163330078,,0.27389755455821652
6.6201912720000005,0.1074351966381073,-0.018227756023406982,-0.16366291046142578,,0.19662177098943623
6.6369478540000006,0.071902811527252197,-0.091583430767059326,-0.13541221618652344,,0.17858893411724608
6.6537052090000008,0.0043929219245910645,-0.10704478621482849,0.012273788452148438,,0.10783566154933154
6.6704621980000001,-0.056784480810165405,-0.079343795776367188,-0.083263397216796875,,0.12826811180166334
6.6872190860000007,0.023122102022171021,0.0038166642189025879,-0.17882442474365234,,0.18035346798046806
6.7039758200000001,0.083956003189086914,0.048798143863677979,-0.10183525085449219,,0.14071349484901416
6.720733053,0.17226812243461609,0.077704071998596191,-0.14370918273925781,,0.23741642322277601
6.7374900420000001,0.24559104442596436,0.078512072563171387,-0.14813327789306641,,0.29735933592161712
6.7542475700000004,0.22582602500915527,0.031184494495391846,-0.085672378540039062,,0.24353567030945691
6.7710035110000009,0.22300165891647339,0.030702888965606689,-0.19018173217773438,,0.29468881642243738
6.7877608970000001,0.26601684093475342,0.034410655498504639,-0.18057823181152344,,0.32335360006797353
6.8045149060000005,0.21324318647384644,0.052438735961914062,-0.080567359924316406,,0.23390933519630491
6.8212784350000009,0.20056742429733276,0.069530725479125977,-0.19063472747802734,,0.28531283321214562
6.8380312850000005,0.19853919744491577,0.055888652801513672,-0.12375545501708984,,0.2405343365936064
6.8547886390000006,0.1498529314994812,-0.020541667938232422,-0.027971267700195312,,0.15381889681514688
6.8715457910000008,0.10649806261062622,-0.059996068477630615,-0.12845230102539062,,0.17731711482907389
6.8883031260000003,0.10008352994918823,-0.064306199550628662,-0.11907386779785156,,0.16831692208472551
6.9050595750000001,0.10188150405883789,-0.049864709377288818,-0.071277618408203125,,0.13396577546716137
6.9218165040000006,0.098197996616363525,0.0060777068138122559,-0.219635009765625,,0.24066433590029121
6.9385735320000004,0.15148532390594482,0.05462348461151123,-0.15749645233154297,,0.22524799871922283
6.9553309090000006,0.096667826175689697,0.040981650352478027,-0.043135643005371094,,0.11351144427163695
6.972085517,0.075034856796264648,0.03103327751159668,-0.095624923706054688,,0.12544887437253671
6.9888465140000005,0.020190894603729248,0.040094971656799316,-0.033235549926757812,,0.055855892759783678
7.0056013670000006,0.058344602584838867,0.02978438138961792,-0.066463470458984375,,0.093319852823487093
7.0223587420000007,0.16240841150283813,0.091198325157165527,-0.084646224975585938,,0.20459376833365381
7.0391020690000001,0.19608002901077271,0.13417249917984009,0.0020437240600585938,,0.23760011389109922
7.0558688650000008,0.22645622491836548,0.1523977518081665,-0.10278892517089844,,0.29167286417877375
7.0726329540000004,0.26034939289093018,0.10042786598205566,-0.18820095062255859,,0.3365815806897644
7.0893866570000004,0.24014657735824585,0.015337288379669189,-0.18820667266845703,,0.30549527438023133
7.1061432390000006,0.23216766119003296,-0.071236491203308105,-0.12601852416992188,,0.27360030887295084
7.1229003500000001,0.1505894660949707,-0.1448390781879425,-0.083049774169921875,,0.22483952245718783
7.1396408080000002,0.14187097549438477,-0.14693352580070496,-0.14069271087646484,,0.24801466405380806
7.1564176860000002,0.1673736572265625,-0.074737370014190674,-0.12166023254394531,,0.22000188133895524
7.1731710320000008,0.20042532682418823,-0.016206502914428711,-0.00711822509765625,,0.20120544599448334
7.1899279500000004,0.18837249279022217,0.050798356533050537,0.0028533935546875,,0.19512255359450162
7.2066853060000007,0.13415473699569702,0.088818371295928955,-0.044936180114746094,,0.16704926465372733
7.2234423140000006,0.1140129566192627,0.093904793262481689,-0.045126914978027344,,0.15444579285357504
7.2401989060000007,0.09092181921005249,0.096592605113983154,-0.084226608276367188,,0.15713379685132017
7.2569563540000006,0.1249384880065918,0.09481048583984375,-0.055092811584472656,,0.16623438843645649
7.2737131590000006,0.056231498718261719,0.069803416728973389,-0.012681007385253906,,0.090527931509813336
7.2904703920000005,0.037194192409515381,0.04033815860748291,-0.10363674163818359,,0.1172652941249802
7.3072266800000003,0.091354668140411377,-0.00089544057846069336,-0.016765594482421875,,0.092884672380448549
7.3239838420000005,0.053379833698272705,-0.043594062328338623,0.09860992431640625,,0.12030696608937361
7.3407409930000007,0.080243587493896484,-0.0014740824699401855,-0.10685443878173828,,0.13363785893368338
7.3574981860000008,0.18481993675231934,0.048293828964233398,-0.13086128234863281,,0.23154994743054153
7.3742548190000008,0.19025921821594238,0.029057025909423828,-0.030323982238769531,,0.19483948462685821
7.3910116550000007,0.17868590354919434,0.015522003173828125,-0.058981895446777344,,0.1888079677879482
7.4077809430000006,0.12257450819015503,-0.024745523929595947,-0.020872116088867188,,0.12677734909137253
7.4245261010000005,0.063561975955963135,-0.063576698303222656,-0.025798797607421875,,0.093529136169186053
7.4412825800000002,0.093372762203216553,-0.029036402702331543,-0.044804573059082031,,0.10755944947031391
7.4580398650000008,0.10216385126113892,0.01952970027923584,0.14243602752685547,,0.17637143656254556
7.4747966000000003,0.073300182819366455,0.071179032325744629,0.017951011657714844,,0.10373818132065628
7.4915540360000001,0.16152733564376831,0.12915545701980591,-0.17765045166015625,,0.27263876322567748
7.5083104860000001,0.22781121730804443,0.13577848672866821,-0.14901065826416016,,0.30420046756377361
7.5250678210000004,0.30804204940795898,0.059266865253448486,-0.066958427429199219,,0.32075831481696182
7.5418245550000007,0.18718534708023071,-0.043252527713775635,3.337860107421875e-05,,0.19211750682670325
7.5585816250000004,0.066848397254943848,-0.098221123218536377,-0.044025421142578125,,0.12670570219468047
7.5753384110000006,0.047351241111755371,-0.061053693294525146,0.0082073211669921875,,0.077698478881273444
7.5920956130000006,0.018203437328338623,0.0048434138298034668,0.098667144775390625,,0.10044913760815161
7.6088524500000005,0.079335153102874756,0.094988346099853516,0.084686279296875,,0.1499620562468735
7.6256096120000008,0.092806041240692139,0.10524481534957886,0.084923744201660156,,0.16401669054692272
7.6423738840000004,0.10335832834243774,0.063546717166900635,-0.086704254150390625,,0.14912664747860713
7.6591235390000003,0.19490396976470947,0.027207791805267334,-0.13411998748779297,,0.23815119653003489
7.6758805380000004,0.13093394041061401,-0.069015026092529297,0.12367725372314453,,0.19288036101817568
7.6926350140000004,-0.0243033766746521,-0.092899501323699951,0.070316314697265625,,0.11901829933496381
7.7093936610000009,-0.037209093570709229,-0.018698513507843018,0.036359786987304688,,0.055282774546136469
7.7261514030000003,-0.031423509120941162,0.057478845119476318,0.19372844696044922,,0.20450419487983665
7.7429080250000002,0.052327930927276611,0.13799601793289185,0.084895133972167969,,0.17025949927277828
7.7596657980000003,0.15685802698135376,0.16044443845748901,-0.047932624816894531,,0.22944366407085479
7.7764218920000001,0.26650822162628174,0.083956778049468994,-0.094921112060546875,,0.29510233867196312
7.7931791250000009,0.28221684694290161,0.0081938505172729492,0.029692649841308594,,0.28389283425139694
7.8099362760000002,0.12017619609832764,-0.045013785362243652,0.17275619506835938,,0.21520516238185106
7.8266903670000003,0.051766455173492432,-0.050516247749328613,0.12929153442382812,,0.14814843246409556
7.8434528590000001,0.060635507106781006,-0.017619788646697998,0.14737415313720703,,0.16033172701296441
7.8602068870000004,0.086561977863311768,0.017898142337799072,0.042914390563964844,,0.098259678547352819
7.8769641720000001,0.24593269824981689,0.070471644401550293,-0.11879730224609375,,0.28206726813659855
7.8937211500000002,0.24191838502883911,0.026427090167999268,0.12561893463134766,,0.27386677937936177
7.9104779250000004,0.040650546550750732,-0.045103609561920166,0.010149002075195312,,0.061561390282475002
7.9272348840000006,0.074849188327789307,-0.030679523944854736,-0.153472900390625,,0.17348649900531882
7.9440034290000003,0.0054346919059753418,-0.028255045413970947,0.24732780456542969,,0.24899583606681822
7.9607492280000001,-0.048396289348602295,0.020363152027130127,0.23748207092285156,,0.24321717207672641
7.9775058110000003,0.11710441112518311,0.10854935646057129,0.10455226898193359,,0.19086011328260988
7.9942626560000001,0.1652795672416687,0.11456000804901123,0.21590805053710938,,0.29505527800484738
8.0110197470000006,0.18353128433227539,0.14545249938964844,-0.037085533142089844,,0.23709807817817344
8.0277771130000009,0.25246787071228027,0.12703090906143188,-0.17550563812255859,,0.33268469548774399
8.0445333590000008,0.19249922037124634,-0.013196408748626709,0.10073661804199219,,0.21766479104792469
8.0612909780000006,0.0091623067855834961,-0.12606072425842285,0.10952663421630859,,0.16724633828261931
8.0780476320000005,-0.089879691600799561,-0.11659479141235352,0.11769962310791016,,0.1884831706717848
8.0948047630000008,-0.10878977179527283,-0.092792689800262451,0.39455223083496094,,0.41966315133030152
8.1115614370000007,-0.068308055400848389,-0.024427592754364014,0.30441188812255859,,0.31293656761516314
8.1283187520000002,0.042230546474456787,0.10854643583297729,0.028354644775390625,,0.11987382394798499
8.1450754550000006,0.19786149263381958,0.1724165678024292,-0.008823394775390625,,0.26259187994950473
8.1618327490000002,0.25850993394851685,0.12124145030975342,0.14467144012451172,,0.32008858275636626
8.1785761470000011,0.14075082540512085,0.04877316951751709,0.11595249176025391,,0.18877128293895504
8.1953463400000004,0.12574493885040283,0.014448046684265137,0.062535285949707031,,0.14117789376631837
8.2121037060000006,0.054194152355194092,-0.029154181480407715,0.20005130767822266,,0.20930240837376296
8.2288605420000014,0.018487632274627686,-0.0055478215217590332,0.16187000274658203,,0.16301677416737709
8.2456169820000014,0.12164032459259033,0.045572280883789062,0.1054840087890625,,0.16733223676910769
8.2623745100000008,0.10482335090637207,0.015554726123809814,0.23998355865478516,,0.26233946105121481
8.2791315290000007,0.034285247325897217,0.014648735523223877,0.076898574829101562,,0.085460250686352629
8.2958886200000013,0.11756747961044312,0.041741371154785156,0.0053548812866210938,,0.12487245125097567
8.3126449989999998,0.12569582462310791,0.0021299123764038086,0.16776180267333984,,0.20963778116222961
8.3294022830000003,0.086116313934326172,-0.014225602149963379,0.14376640319824219,,0.16818788889430775
8.3461590379999997,0.063699960708618164,0.0052610039710998535,0.1765594482421875,,0.18777274008931411
8.3629166270000006,0.01281440258026123,-0.012541770935058594,0.26760959625244141,,0.26820962126305459
8.3796732700000014,0.017883539199829102,0.025352418422698975,0.11949634552001953,,0.1234582629346101
8.396429984000001,0.044577658176422119,0.078513264656066895,0.15786361694335938,,0.18185824669199699
8.4131872380000008,0.041531682014465332,0.064261198043823242,0.13861465454101562,,0.1583300497015751
8.429944399,0.098311245441436768,0.054088890552520752,0.07613372802734375,,0.13559887021944739
8.4467007480000014,0.023828625679016113,0.044144392013549805,0.22929096221923828,,0.23471445652839704
8.463458266,0.022233486175537109,0.042232692241668701,0.12418270111083984,,0.13303860889486738
8.4802151630000004,0.099305570125579834,0.044227540493011475,0.11528873443603516,,0.15845871349941618
8.4969721930000013,0.04706573486328125,0.018155276775360107,0.25390148162841797,,0.25886436573255206
8.5137288160000004,0.12895900011062622,0.013658583164215088,0.16404247283935547,,0.20910981205777254
8.5304883870000001,0.11642849445343018,-0.00012433528900146484,0.17375087738037109,,0.20915299942961674
8.5472405050000013,0.11889380216598511,0.0091031789779663086,0.11620044708251953,,0.16649669054718991
8.5640000560000011,0.17311298847198486,0.026960313320159912,0.063196182250976562,,0.18624908784507216
8.5807566900000012,0.076482951641082764,0.01167529821395874,0.14837265014648438,,0.16733319393236992
8.5975137400000001,0.0049471855163574219,0.00065463781356811523,0.095267295837402344,,0.095397908003117912
8.6142709830000008,-0.084221988916397095,-0.042636752128601074,0.10900783538818359,,0.14420105486828733
8.6310279919999999,-0.17278614640235901,-0.075963079929351807,0.19897365570068359,,0.27425527809656591
8.6477843820000011,-0.16777247190475464,-0.081477105617523193,0.21815109252929688,,0.28701223012367705
8.664541787000001,-0.15476813912391663,-0.037834465503692627,0.17537784576416016,,0.23694305740558777
8.6812988270000009,-0.054914593696594238,0.04585719108581543,0.089613914489746094,,0.11466973552476059
8.6980557850000011,0.048290491104125977,0.12044346332550049,0.085866928100585938,,0.15560118486165214
8.7148123770000012,0.087922453880310059,0.11210232973098755,0.09583282470703125,,0.17170096248646624
8.731569489,0.055679023265838623,0.06814807653427124,0.043140411376953125,,0.098007188822715627
8.7483266410000002,-0.0099138617515563965,-0.00998687744140625,0.013897895812988281,,0.019778116287637686
8.7650839950000012,-0.041778624057769775,-0.073574602603912354,0.042110443115234375,,0.094509073616481268
8.7818404450000003,-0.070743978023529053,-0.084514975547790527,0.13769817352294922,,0.17637539088544474
8.7985973729999998,-0.097181558609008789,-0.04751133918762207,0.24263954162597656,,0.26566055380041181
8.815354515000001,-0.12402984499931335,0.010303258895874023,0.20475864410400391,,0.23961565460073606
8.8321119610000007,-0.057065427303314209,0.069555878639221191,-0.014466285705566406,,0.091124950857045625
8.8488681050000011,0.11470317840576172,0.087335348129272461,-0.0614013671875,,0.15669846860049214
8.8656123180000002,0.18586695194244385,0.017858684062957764,0.039586067199707031,,0.19087302883638377
8.88238241,0.16774636507034302,-0.059151291847229004,0.045220375061035156,,0.18352820121760455
8.8991396830000014,0.1104656457901001,-0.083125174045562744,0.077870368957519531,,0.15867024869681517
8.9158962150000001,0.034958422183990479,-0.055496573448181152,0.19252586364746094,,0.20339166433087716
8.9326531930000002,0.0021181702613830566,0.018085300922393799,0.17768478393554688,,0.17861536103295181
8.9494049320000002,0.032827556133270264,0.10885524749755859,0.11564540863037109,,0.162175749995871
8.9661731319999998,0.11409842967987061,0.12567871809005737,0.034942626953125,,0.17330487302599934
8.9829241189999998,0.18055576086044312,0.071020007133483887,0.087725639343261719,,0.21293194215832825
8.9996811070000007,0.08745807409286499,-0.029228687286376953,0.14051914215087891,,0.16807397239113731
9.016437925,0.0038765072822570801,-0.097845256328582764,0.063614845275878906,,0.11677144357328752
9.0331955340000007,-0.055286109447479248,-0.10419279336929321,0.138946533203125,,0.18226033901291308
9.0499519209999999,-0.12884816527366638,-0.053718090057373047,0.21468353271484375,,0.2560790934706062
9.0667091870000007,-0.062050044536590576,0.049938380718231201,0.13340473175048828,,0.15537333216859198
9.0834662350000013,0.0052813291549682617,0.1003076434135437,0.30673027038574219,,0.3227583841447535
9.1002231630000008,-0.0014402866363525391,0.088475704193115234,0.2165679931640625,,0.23394811459204348
9.116979777000001,0.093414664268493652,0.095770001411437988,-0.0552978515625,,0.14476202906208002
9.1337370600000014,0.10231500864028931,0.046775519847869873,0.045047760009765625,,0.12118420248530079
9.1504940890000004,0.00071001052856445312,-0.036810398101806641,0.12068843841552734,,0.12617927203206833
9.1672510490000008,-0.12487813830375671,-0.075252532958984375,-0.004486083984375,,0.14586849588746051
9.1840074680000008,-0.14577507972717285,-0.10168749094009399,0.0233917236328125,,0.17927044490843766
9.2007649650000012,-0.1428644061088562,-0.09699481725692749,0.13753032684326172,,0.22075512204511891
9.2175219850000012,-0.13564887642860413,-0.038972735404968262,0.056774139404296875,,0.15212756057462734
9.2342791880000004,-0.056199610233306885,0.012873828411102295,-0.028117179870605469,,0.064145985472281106
9.2510354130000003,-0.013253569602966309,0.011965036392211914,0.01557159423828125,,0.023691638824895628
9.2677928100000013,0.039861798286437988,0.0021470189094543457,-0.093367576599121094,,0.10154347351168844
9.284549869000001,0.14786583185195923,0.038999795913696289,-0.0883636474609375,,0.17661659747368788
9.3013038360000007,0.14215517044067383,0.051466703414916992,0.10331439971923828,,0.18311411532911001
9.3180665120000015,0.10905706882476807,0.063827037811279297,-0.049501419067382812,,0.13571192101690008
9.3348205310000001,0.2127804160118103,0.080923914909362793,-0.058253288269042969,,0.23498432083135476
9.3515776820000003,0.20083916187286377,0.021975696086883545,0.1290130615234375,,0.23971581133489656
9.3683348960000004,0.17594051361083984,0.0080031752586364746,-0.095371246337890625,,0.20028676883885563
9.3850915490000002,0.250957190990448,0.033536314964294434,-0.11003875732421875,,0.27606652141224741
9.4018484349999998,0.18425768613815308,-0.024429500102996826,0.16225719451904297,,0.24672878338260212
9.4186053230000013,0.077945709228515625,-0.057925701141357422,0.041441917419433594,,0.10558576115771158
9.4353629740000002,0.01225358247756958,-0.068092703819274902,0.078838348388671875,,0.10489161917716637
9.4521193110000006,-0.076849043369293213,-0.12456890940666199,0.30731582641601562,,0.34039125403467596
9.4688765139999997,-0.18168586492538452,-0.11655116081237793,0.31129169464111328,,0.37880924718508913
9.485633279,-0.2568061351776123,-0.055764675140380859,0.11955165863037109,,0.2887069260333861
9.5023865040000004,-0.19613632559776306,0.016655802726745605,0.0663299560546875,,0.20771744523193222
9.519147104,-0.20971003174781799,0.083638429641723633,0.089376449584960938,,0.24282057999481316
9.5359044190000013,-0.20295426249504089,0.13014781475067139,-0.059077262878417969,,0.24823176536955688
9.5526612760000003,-0.14291363954544067,0.10242927074432373,0.061021804809570312,,0.18611750195926072
9.569418314,-0.24279621243476868,-0.0076992511749267578,0.29048633575439453,,0.37867082076830105
9.5861748470000006,-0.26970145106315613,-0.010109066963195801,0.19558048248291016,,0.33330585213687186
9.6029322219999997,-0.13739266991615295,0.063795924186706543,0.058170318603515625,,0.16226660671857129
9.6196860270000002,0.084784328937530518,0.097527146339416504,0.074703216552734375,,0.14926653097671314
9.6364495880000014,0.22220033407211304,0.10058146715164185,0.10060596466064453,,0.26383930738507161
9.653202782000001,0.27506083250045776,0.052468776702880859,-0.051630020141601562,,0.28474039594754347
9.6699601060000013,0.28754574060440063,-0.038946151733398438,-0.12301731109619141,,0.31517077038315477
9.6867171970000001,0.17593085765838623,-0.13271847367286682,-0.0093774795532226562,,0.22057605729825236
9.7034744100000001,0.093606233596801758,-0.16179338097572327,0.057169914245605469,,0.19546770626009921
9.7202311140000006,0.081340909004211426,-0.14555051922798157,0.14246654510498047,,0.21931259334410294
9.7369879099999999,0.038906514644622803,-0.086196422576904297,0.15699863433837891,,0.18328150842614896
9.7537449900000013,0.14318686723709106,-0.0050413608551025391,0.10496711730957031,,0.17761190834154336
9.7705023139999998,0.1852412223815918,0.038099944591522217,0.10147666931152344,,0.21462392844662892
9.7872588050000005,0.18222534656524658,0.044963240623474121,-0.109100341796875,,0.21709595693698122
9.804015733,0.1704246997833252,0.054281294345855713,-0.24422836303710938,,0.30271856653314816
9.8207726300000004,0.034629642963409424,0.022308528423309326,-0.0069293975830078125,,0.041771990173442852
9.8375169549999999,-0.15479615330696106,-0.019189119338989258,-0.018758773803710938,,0.15710494255196733
9.8542864460000015,-0.2021106481552124,-0.022614002227783203,-0.043614387512207031,,0.20799596628911632
9.8710438720000013,-0.27554222941398621,-0.038984239101409912,0.13261032104492188,,0.30826739745938581
9.8878008920000013,-0.27535107731819153,-0.011867642402648926,0.0332489013671875,,0.27760501825185152
9.904558165000001,-0.17374575138092041,0.044885873794555664,-0.047336578369140625,,0.18558846796317702
9.9213143000000006,-0.090938389301300049,0.052070558071136475,-0.031747817993164062,,0.10949455517915706
9.9380578709999998,-0.0082172751426696777,0.059962689876556396,-0.045786857604980469,,0.075891265092507015
9.9548293550000011,-0.029978334903717041,0.05079948902130127,0.021356582641601562,,0.062732704951662055
9.9715859280000014,0.013323783874511719,0.014498412609100342,-0.035307884216308594,,0.040427390130339504
9.9883424999999999,0.08077007532119751,-0.003847658634185791,-0.092294692993164062,,0.12270664162570644
10.005099397,0.11953204870223999,-0.014742374420166016,-0.062018394470214844,,0.13546781729681118
10.021856600000001,0.20444297790527344,0.0028682947158813477,-0.084818840026855469,,0.22135806728659016
10.038613924,0.26766228675842285,-0.014061093330383301,-0.064279556274414062,,0.27563141231222088
10.055371718,0.23738056421279907,-0.023342549800872803,-0.12611770629882812,,0.26981490459066659
10.072126030000002,0.30520540475845337,-0.014052927494049072,-0.21233463287353516,,0.37206695658505246
10.088871229,0.37890535593032837,-0.046100616455078125,-0.097066879272460938,,0.39384833964601346
10.105641686,0.33685910701751709,-0.060777842998504639,0.0028247833251953125,,0.34230977722090294
10.122398197000001,0.2492140531539917,-0.037932038307189941,-0.011688232421875,,0.25235510416222318
10.139160517000001,0.16589730978012085,-0.033336877822875977,0.0063924789428710938,,0.16933436922932624
10.155912176000001,0.10710251331329346,-0.015188992023468018,0.010694503784179688,,0.10870154666748312
10.172669357,0.080582499504089355,0.032164394855499268,-0.023833274841308594,,0.089978400254774382
10.189426061000001,0.10439443588256836,0.061171352863311768,0.03327178955078125,,0.12548762741513186
10.206183284000002,0.068808913230895996,0.065814614295959473,0.10014247894287109,,0.13818374030169492
10.222940182,0.027918040752410889,0.098963320255279541,0.0036745071411132812,,0.10289148535293088
10.239697405000001,0.01702415943145752,0.094823896884918213,0.027338027954101562,,0.10014370273366431
10.256453784000001,0.017926216125488281,0.029051423072814941,0.08526611328125,,0.09184576463411015
10.273210946000001,-0.0055665969848632812,-0.0043027400970458984,-0.034449577331542969,,0.035160687602158389
10.289968178000001,0.011840403079986572,0.011358439922332764,-0.063440322875976562,,0.065527733587954606
10.306713012000001,0.00091642141342163086,-0.01296079158782959,-0.015777587890625,,0.020439036827515345
10.323481505,0.019071519374847412,-0.015269219875335693,-0.14994525909423828,,0.15192252187119845
10.340239003000001,0.065901458263397217,0.0082965493202209473,-0.11665916442871094,,0.13424304666190409
10.356996074000001,0.001411139965057373,-0.048568904399871826,-0.015977859497070312,,0.051149015481365731
10.373753103,0.050068974494934082,-0.071602821350097656,-0.163909912109375,,0.18574263247830691
10.390509796,0.13007384538650513,-0.059328734874725342,-0.086209297180175781,,0.16694653921470717
10.407268251000001,0.15159940719604492,-0.015194356441497803,0.034226417541503906,,0.15615600016518383
10.42402347,0.17733228206634521,0.060019016265869141,-0.20935535430908203,,0.28085349375477203
10.440781435,0.30669254064559937,0.10972946882247925,-0.41478061676025391,,0.52739343080449219
10.457537448,0.35557830333709717,0.079414904117584229,-0.16129398345947266,,0.3984449847849994
10.474294650000001,0.24123907089233398,-0.023001313209533691,-0.089386940002441406,,0.25829319537564221
10.491051853,0.15449517965316772,-0.063917219638824463,-0.13348579406738281,,0.21394538723754253
10.507809126000001,0.0087679028511047363,-0.083791077136993408,-0.039082527160644531,,0.092872302961897676
10.52456525,-0.0088673233985900879,-0.051303744316101074,-0.12081623077392578,,0.13155707971646963
10.541322524,0.10847657918930054,-0.0017832517623901367,-0.12974739074707031,,0.16912933992992937
10.558079829,0.15493988990783691,-0.017726480960845947,-0.014616966247558594,,0.15663413840600052
10.574836756,0.1183619499206543,-0.031067788600921631,-0.10069942474365234,,0.15847754674171838
10.591593471000001,0.063845932483673096,-0.02122265100479126,-0.25020408630371094,,0.25909223997151237
10.608350521,0.058205306529998779,-0.016907215118408203,-0.16485500335693359,,0.17564419649713975
10.625107337000001,-0.042823255062103271,0.0036947131156921387,-0.11342525482177734,,0.12129620979447935
10.641864834000001,-0.076301455497741699,0.025555253028869629,-0.14263153076171875,,0.16376427154869444
10.658621314000001,-0.087523818016052246,0.040504336357116699,-0.1045379638671875,,0.14222941282777932
10.675378426,-0.057122766971588135,0.038075447082519531,-0.14252853393554688,,0.15819966233478641
10.692135262000001,0.011432409286499023,0.054951190948486328,-0.12211894989013672,,0.134400042005279
10.708892515000001,0.053044617176055908,0.032644748687744141,-0.088026046752929688,,0.10783318568599029
10.725648925000002,0.069599926471710205,1.4841556549072266e-05,-0.18366622924804688,,0.19641138905708949
10.742396250000001,0.07035672664642334,-0.024706125259399414,-0.088217735290527344,,0.11551117015043273
10.759163441,0.022279322147369385,-0.061386406421661377,0.05051422119140625,,0.082561162971980781
10.7759204,0.030296802520751953,-0.064029991626739502,-0.14102268218994141,,0.15781360195733127
10.792670441,0.11826062202453613,-0.032504558563232422,-0.19335651397705078,,0.22897349747597043
10.809434418,0.087284624576568604,-0.043275296688079834,-0.045607566833496094,,0.10757047524012187
10.826191174,0.042792558670043945,-0.067627310752868652,-0.016778945922851562,,0.081769121699307709
10.842948925,-0.089044034481048584,-0.069412171840667725,-0.0608062744140625,,0.12823530202100678
10.859704368000001,-0.12757301330566406,-0.046834290027618408,-0.14297580718994141,,0.19725720744219594
10.876462059000001,-0.07475203275680542,-0.0084106326103210449,-0.11964130401611328,,0.14132461487248552
10.893219140000001,-0.016751646995544434,0.025485873222351074,-0.0095567703247070312,,0.031960589325109215
10.909978061,-0.054800570011138916,0.077840805053710938,0.12480354309082031,,0.15696565794140388
10.926731043,-0.14566493034362793,0.10123783349990845,0.095808982849121094,,0.20161034710141329
10.943490086000001,-0.088071763515472412,0.13530838489532471,-0.0092687606811523438,,0.16171241287010441
10.960247024000001,0.028529942035675049,0.12260615825653076,0.073061943054199219,,0.14554818843887921
10.9770044,0.084924459457397461,0.070572137832641602,0.20353126525878906,,0.23155467257268653
10.993760788000001,0.11227297782897949,0.022368490695953369,0.16565513610839844,,0.20136334086842492
11.010495957,0.12619107961654663,-0.020118832588195801,0.22307395935058594,,0.25708159665726432
11.027274715000001,0.068372607231140137,-0.049276173114776611,0.29016399383544922,,0.30215575118630422
11.044032182,0.075274229049682617,-0.02700275182723999,0.13695526123046875,,0.15859414158150209
11.060788846000001,0.076935887336730957,0.0023962855339050293,0.031147003173828125,,0.08303618940775534
11.077545683,0.061752557754516602,-0.01994478702545166,0.030506134033203125,,0.071706325609162874
11.094302367000001,0.011725902557373047,-0.063271522521972656,0.063605308532714844,,0.090478824188731308
11.111060576,-0.044415056705474854,-0.098809003829956055,0.10583686828613281,,0.15145084743452261
11.127816690000001,-0.079537332057952881,-0.084153175354003906,0.14873695373535156,,0.1884956909839875
11.14457376,-0.097368597984313965,-0.030116617679595947,0.1871795654296875,,0.2131287034829813
11.161330586,-0.041023612022399902,0.062899410724639893,0.0727691650390625,,0.10456875247105922
11.178087993,0.09167855978012085,0.12810391187667847,0.059460639953613281,,0.16837796252823059
11.194844473,0.099481463432312012,0.14868086576461792,0.064569473266601562,,0.19018879643416733
11.211601807000001,0.10441577434539795,0.15705788135528564,-0.055345535278320312,,0.19655269090807137
11.228358329000001,0.042633473873138428,0.074187934398651123,-0.032202720642089844,,0.091424711766472738
11.245107922000001,-0.13171306252479553,-0.039742887020111084,-0.014446258544921875,,0.13833481952964966
11.261872276,-0.20462954044342041,-0.09486013650894165,-0.053952217102050781,,0.23191062082364253
11.278629559000001,-0.20755964517593384,-0.11293575167655945,0.032052993774414062,,0.23845939847741729
11.295386641,-0.13468781113624573,-0.091681122779846191,0.11465167999267578,,0.1992266108430025
11.312143598,-0.075841844081878662,-0.02669978141784668,0.0966949462890625,,0.12575681404737266
11.328900221000001,0.037627577781677246,0.052954971790313721,-0.22718524932861328,,0.23629050162783369
11.345656844000001,0.27410727739334106,0.1070702075958252,-0.3740081787109375,,0.47590014353567461
11.362415064,0.32124310731887817,0.081178903579711914,-0.21581935882568359,,0.39543032765611391
11.379171493000001,0.31571483612060547,0.005953669548034668,-0.11055374145507812,,0.3345645433656475
11.395927882000001,0.15397685766220093,-0.071100056171417236,0.10843849182128906,,0.20130324684808276
11.41268537,-0.089473903179168701,-0.085948765277862549,0.11620235443115234,,0.16998751947789437
11.429442328,-0.036684751510620117,0.029076933860778809,-0.027719497680664062,,0.054402294324857207
11.446199572000001,0.099673926830291748,0.087586164474487305,0.15518856048583984,,0.20418059947700581
11.462955818000001,0.13252806663513184,0.072501838207244873,0.10348224639892578,,0.18310865711168176
11.479712979,0.127860426902771,0.042083382606506348,-0.10644817352294922,,0.17161151915223044
11.496470182000001,0.017605721950531006,-0.024498105049133301,-0.031338691711425781,,0.043499795339536559
11.513227517000001,-0.066359758377075195,-0.072921216487884521,-0.047301292419433594,,0.10935508040546396
11.529983977000001,-0.11754351854324341,-0.087356030941009521,-0.053032875061035156,,0.15575635053034526
11.546740834000001,-0.1964009702205658,-0.10142749547958374,0.031820297241210938,,0.22332355285405875
11.563497894000001,-0.16440051794052124,-0.079108297824859619,0.046667098999023438,,0.18831747452863473
11.580255320000001,-0.12279605865478516,0.00077730417251586914,0.07132720947265625,,0.14201072858795644
11.59701175,-0.04214024543762207,0.093704342842102051,-0.023335456848144531,,0.10536056045468269
11.613768871000001,0.074767112731933594,0.14842808246612549,-0.074771881103515625,,0.18224118912748263
11.630525819000001,0.080465614795684814,0.1301996111869812,-0.12243843078613281,,0.19600465109547591
11.647283205000001,0.12940508127212524,0.12434577941894531,-0.20865821838378906,,0.27521954875598381
11.664039878000001,0.13113826513290405,0.047060191631317139,-0.093832969665527344,,0.16797777357345794
11.680796990000001,0.073265254497528076,-0.045142531394958496,-0.10808372497558594,,0.13815837745837373
11.697553562000001,0.054003238677978516,-0.082281053066253662,-0.22718906402587891,,0.24759117975880576
11.714298089000001,0.052140951156616211,-0.084799468517303467,-0.27035331726074219,,0.28809815133426542
11.731067152000001,0.091293156147003174,-0.077923178672790527,-0.18401432037353516,,0.21969918578885717
11.747824814000001,0.11515933275222778,-0.074116349220275879,-0.087930679321289062,,0.16274737941848275
11.764581731000002,0.14182722568511963,-0.069518923759460449,-0.049466133117675781,,0.16551356751586002
11.78133873,0.13087999820709229,-0.0025123953819274902,-0.039804458618164062,,0.13682207784977082
11.798095516,0.17287981510162354,0.085325181484222412,-0.13527679443359375,,0.23551566439860389
11.814852769000002,0.26769351959228516,0.14460790157318115,-0.12544059753417969,,0.32909969483248697
11.831606554,0.19478857517242432,0.12246835231781006,-0.091938018798828125,,0.24777749219369408
11.848369849000001,0.10285812616348267,0.04069894552230835,-0.17387104034423828,,0.20607604653350295
11.865123186,0.01653599739074707,-0.047213613986968994,-0.12742042541503906,,0.13688874814376395
11.881880602000001,-0.054587781429290771,-0.087602794170379639,-0.056082725524902344,,0.11747062411569735
11.898637662000001,-0.047743797302246094,-0.060006022453308105,-0.027429580688476562,,0.081440621364590071
11.915394998,-0.047382473945617676,-0.0049255490303039551,-0.075194358825683594,,0.089014332945109048
11.932150999000001,0.054910778999328613,0.037118136882781982,-0.094104766845703125,,0.11510281003974748
11.948908222,0.047342061996459961,0.044008553028106689,-0.04581451416015625,,0.079227478070651058
11.965665476000002,0.047197639942169189,0.051747977733612061,-0.14148235321044922,,0.15786933421534205
11.982434896000001,0.076294422149658203,0.026055753231048584,-0.060620307922363281,,0.10086903816429349
11.999179159000001,-0.026338875293731689,-0.019006609916687012,0.001277923583984375,,0.03250570197596659
12.015936188000001,0.003031611442565918,0.013698458671569824,-0.18064212799072266,,0.18118613866113498
12.032693188000001,0.039662182331085205,0.027008414268493652,-0.14217662811279297,,0.15005577872939865
12.049450583,0.076576054096221924,-0.016819596290588379,-0.16983413696289062,,0.18705727721277185
12.066207196000001,0.14748191833496094,-0.03451460599899292,-0.22222995758056641,,0.26893926509397276
12.082964409000001,0.082530498504638672,-0.049643874168395996,-0.10264110565185547,,0.14075153283466244
12.099721052000001,0.062141895294189453,-0.014802515506744385,-0.21846103668212891,,0.22760921370698481
12.116465224000001,0.14361584186553955,0.037563025951385498,-0.23760318756103516,,0.28016381938525997
12.133234948,0.11306518316268921,0.029264867305755615,-0.022999763488769531,,0.11903426911009821
12.149992201,0.077995598316192627,-0.0049911737442016602,-0.14735603332519531,,0.166799357700747
12.166749211000001,0.12195110321044922,-0.0031594634056091309,-0.19003009796142578,,0.2258173862094903
12.183506190000001,0.11549156904220581,-0.024122953414916992,0.025362014770507812,,0.12067912493264236
12.200258743000001,0.069269776344299316,-0.024309456348419189,-0.013311386108398438,,0.074608609307986767
12.217020086000002,0.071772992610931396,-0.013467669486999512,-0.16675853729248047,,0.18204711024805495
12.233773748000001,0.065296173095703125,-0.029046535491943359,-0.20574665069580078,,0.21780490287770982
12.250534044,0.045679748058319092,-0.070609152317047119,-0.24893951416015625,,0.26276067720246515
12.267290738000002,0.02096247673034668,-0.084537535905838013,-0.22159957885742188,,0.23810164585211904
12.284048073000001,-0.09145122766494751,-0.081306010484695435,-0.079492568969726562,,0.14592142715780365
12.300805011000001,-0.27929726243019104,-0.022298514842987061,-0.16228389739990234,,0.32379043827837772
12.317562031000001,-0.23733276128768921,0.057311475276947021,-0.18688106536865234,,0.30746703461051217
12.334318694,-0.15701946616172791,0.08646923303604126,0.090854644775390625,,0.20096419455419823
12.351075784000001,-0.12320327758789062,0.10955387353897095,-0.042378425598144531,,0.17022640738724748
12.367832855000001,0.0083031654357910156,0.17422682046890259,-0.23755359649658203,,0.29471280721308707
12.384590118,-0.0020247101783752441,0.13426965475082397,-0.12248992919921875,,0.1817586927589476
12.401346242000001,-0.018362522125244141,0.068640291690826416,-0.22298526763916016,,0.23403226582313325
12.418103791,-0.040093004703521729,0.038135051727294922,-0.23311233520507812,,0.23958942385081355
12.434860647000001,-0.10024583339691162,-0.011881351470947266,-0.056726455688476562,,0.11579414666205817
12.451614666000001,-0.19139143824577332,-0.018268167972564697,-0.12469291687011719,,0.22915656681063595
12.468377586000001,-0.23401474952697754,-0.0061876177787780762,-0.22992897033691406,,0.32812881770753355
12.48513136,-0.19023212790489197,-0.0078627467155456543,-0.28203392028808594,,0.34028402470025304
12.501888705000001,-0.012691140174865723,-0.10398373007774353,-0.17930984497070312,,0.20766728597262665
12.518645856000001,0.062063336372375488,-0.17458882927894592,-0.028904914855957031,,0.18753296012566345
12.535402337000001,0.083908140659332275,-0.13022491335868835,-0.15695762634277344,,0.22053299207905802
12.552159448000001,0.10324561595916748,-0.018326282501220703,-0.24746036529541016,,0.2687603807060116
12.568916274000001,0.16235709190368652,0.07121199369430542,-0.21368598937988281,,0.27765567776402356
12.585673833000001,0.3080899715423584,0.11480379104614258,-0.21804523468017578,,0.39451624221351206
12.602429997000002,0.35020071268081665,0.070098221302032471,-0.14519214630126953,,0.38553217652931365
12.619187526000001,0.23043006658554077,-0.055083513259887695,-0.10171031951904297,,0.2578317244179521
12.635944180000001,0.093620359897613525,-0.12008306384086609,-0.30810451507568359,,0.34367587378050024
12.652701412000001,0.070676803588867188,-0.16095677018165588,-0.27989292144775391,,0.33051828982585552
12.669458065000001,0.049612462520599365,-0.16015544533729553,-0.050607681274414062,,0.17513509217891773
12.686215665000001,-0.041796028614044189,-0.12316390872001648,-0.099555015563964844,,0.16379089578801331
12.702972196000001,-0.054772496223449707,-0.093220442533493042,-0.20591831207275391,,0.2325777902027194
12.719729367000001,-0.15084570646286011,-0.024151802062988281,-0.020769119262695312,,0.15417228355355311
12.736485736000001,-0.28554737567901611,0.078729391098022461,0.064149856567382812,,0.30306901009086085
12.753243051,-0.31104552745819092,0.17773663997650146,-0.12716484069824219,,0.38014540645875233
12.770000253000001,-0.23240450024604797,0.19252175092697144,-0.0504608154296875,,0.30597838192988591
12.786757528000001,-0.18248096108436584,0.14675945043563843,-0.053722381591796875,,0.2402576361623894
12.803513621,0.07042306661605835,0.12480872869491577,-0.22344017028808594,,0.26544705078116754
12.820271088,0.29209023714065552,0.080625057220458984,-0.062964439392089844,,0.30948606933535283
12.837024853000001,0.67546564340591431,-0.13176724314689636,0.026419639587402344,,0.68870489989851769
12.853788393,0.041817009449005127,0.094492435455322266,-0.22073459625244141,,0.24372370549510514
12.870541648000001,-0.13763254880905151,0.049395263195037842,-0.64915084838867188,,0.66541673745218899
12.887298983000001,-0.14387136697769165,0.012495100498199463,0.20510768890380859,,0.2508470885219744
12.904055799,-0.057362914085388184,-0.080607831478118896,0.35359573364257812,,0.36717580156950091
12.920813316,-0.082239985466003418,-0.071682870388031006,-0.061636924743652344,,0.12530347005717907
12.937569583,0.03562164306640625,-0.14204719662666321,-0.27578067779541016,,0.31225196519724291
12.954326725000001,0.23178255558013916,-0.18623867630958557,-0.058556556701660156,,0.30304598323944443
12.971083896000001,0.2273634672164917,-0.1884864866733551,0.05260467529296875,,0.29998092230314954
12.987843185000001,0.055337965488433838,-0.11321714520454407,-0.24584579467773438,,0.27626177287745157
13.004595342,-0.0083406567573547363,-0.055597484111785889,-0.22041225433349609,,0.22746913780791903
13.021354691000001,-0.21784088015556335,0.062572300434112549,0.044515609741210938,,0.23097961243191822
13.038108812000001,-0.27654165029525757,0.14404076337814331,-0.023822784423828125,,0.31271480764474041
13.054871599,-0.096324950456619263,0.16558516025543213,0.00064849853515625,,0.19156555517012289
13.071625556000001,-0.019289135932922363,0.14628970623016357,0.08821868896484375,,0.1719165087960495
13.088382800000002,0.18785327672958374,0.048088550567626953,0.014261245727539062,,0.19443442443003253
13.105139452000001,0.27773374319076538,-0.016238033771514893,-0.079830169677734375,,0.28943490086424395
13.121896736,-0.10413038730621338,0.090717017650604248,-0.19695854187011719,,0.24055224394622626
13.138653349,-0.29342690110206604,0.014860749244689941,-0.15155696868896484,,0.33058993166257056
13.155410470000001,-0.22348740696907043,-0.15098699927330017,0.0094423294067382812,,0.26987562433080137
13.172167632000001,-0.14138180017471313,-0.058347642421722412,-0.020067214965820312,,0.15425937220571118
13.188924631000001,-0.10921800136566162,0.088142096996307373,0.061450958251953125,,0.15321168805055119
13.205681193,-0.086551398038864136,0.020550787448883057,0.067236900329589844,,0.11150910336462339
13.222438477000001,-0.040344476699829102,-0.019460499286651611,-0.18947315216064453,,0.19469582230330362
13.239195466,0.030313313007354736,0.013613402843475342,-0.20737743377685547,,0.21002290761327602
13.255952608000001,0.070362448692321777,-0.022428452968597412,-0.0014772415161132812,,0.073865363540979945
13.272708955000001,0.036963164806365967,-0.06772458553314209,0.050782203674316406,,0.092367349470244109
13.289466453000001,-0.025320529937744141,-0.03970789909362793,-0.065448760986328125,,0.080631177601492604
13.306223158000002,0.0080013871192932129,0.01322406530380249,0.020159721374511719,,0.025403001100066283
13.322981265000001,-0.027437806129455566,0.049611508846282959,0.039531707763671875,,0.069115055768730713
13.339736524000001,-0.057885348796844482,0.090747058391571045,-0.07968902587890625,,0.13392566243100887
13.356494063000001,-0.091103434562683105,0.045183539390563965,0.00656890869140625,,0.10190455623951149
13.373250889000001,-0.16780102252960205,-0.047345459461212158,0.072838783264160156,,0.18895571978899342
13.390008508000001,-0.16229924559593201,-0.090047180652618408,0.043820381164550781,,0.19070858834855986
13.406764074000002,-0.12569266557693481,-0.082803547382354736,0.053698539733886719,,0.15980803111386127
13.423522873000001,-0.064184129238128662,-0.038381814956665039,0.039298057556152344,,0.084481379564440948
13.440279139000001,-0.00077289342880249023,0.012248814105987549,-0.0035181045532226562,,0.012767453579423408
13.457036220000001,0.043498575687408447,0.0288238525390625,-0.022328376770019531,,0.056758232629379582
13.473776852,0.019875288009643555,0.051578104496002197,-0.11323833465576172,,0.12600892179713741
13.490553127,-0.022651195526123047,0.067791342735290527,-0.084873199462890625,,0.11096036587756865
13.507293841000001,-0.10060647130012512,0.072005033493041992,0.072144508361816406,,0.14321737674795332
13.524064339000001,-0.12875145673751831,0.043237209320068359,0.076941490173339844,,0.15609736318053105
13.540820768000001,-0.082325726747512817,0.067526400089263916,-0.028101921081542969,,0.11012292205528673
13.557578195000001,0.049209535121917725,0.049774587154388428,-0.022176742553710938,,0.073422719805239012
13.574334889000001,0.14621514081954956,0.0030260086059570312,-0.10204505920410156,,0.17832896074651652
13.591092254000001,0.22110551595687866,-0.017687439918518066,-0.18212699890136719,,0.28700302863601862
13.607848562000001,0.13059461116790771,-0.046711921691894531,-0.12466812133789062,,0.18649154557825326
13.624607045000001,0.022024810314178467,-0.070559918880462646,-0.16419792175292969,,0.18006874223410968
13.641361400000001,-0.0054639577865600586,-0.061072647571563721,-0.08841705322265625,,0.10759785507467966
13.658120038000002,-0.056797623634338379,-0.040690898895263672,0.0063142776489257812,,0.070154040551063404
13.674876935,-0.030800342559814453,0.0032856464385986328,-0.055805206298828125,,0.063825368188332135
13.691633801,-0.0052175521850585938,0.027375996112823486,-0.17511367797851562,,0.17731742223802038
13.708390923000001,0.066663086414337158,0.037775933742523193,-0.12136745452880859,,0.14353064926769929
13.72514782,0.047833621501922607,0.019466102123260498,0.032298088073730469,,0.060911008619795898
13.741904391,-0.061868131160736084,0.034631490707397461,-0.044931411743164062,,0.083939487508397026
13.758661685000002,-0.11155784130096436,0.064631104469299316,-0.11812782287597656,,0.17486141414866438
13.775418166000001,-0.13803324103355408,0.044876515865325928,-0.032570838928222656,,0.14875461960869085
13.792176600000001,-0.064467489719390869,0.039877712726593018,-0.022223472595214844,,0.078994758922441885
13.808932103,0.0037342309951782227,0.046367943286895752,0.050196647644042969,,0.068437081180324572
13.825689387000001,-0.015515685081481934,0.043666303157806396,0.0365447998046875,,0.059016988298132102
13.842433793000001,0.035455763339996338,0.026063442230224609,0.066461563110351562,,0.079709181064550702
13.859203985000001,-0.020345389842987061,-0.0045383572578430176,0.037702560424804688,,0.043081488333726194
13.875954545000001,0.026059508323669434,0.029067575931549072,-0.28236484527587891,,0.28505074599495228
13.892717363000001,0.20023292303085327,0.019347727298736572,-0.19123268127441406,,0.27755629411798161
13.909461290000001,0.21166974306106567,-0.065040826797485352,0.17751216888427734,,0.28380443861933918
13.926231698,0.099354445934295654,-0.10775873064994812,0.072594642639160156,,0.16356415285173678
13.942988208000001,-0.045262515544891357,-0.067316055297851562,-0.06717681884765625,,0.10532270222893907
13.959745299000001,-0.11771273612976074,0.0052050948143005371,-0.087491035461425781,,0.14675851779468543
13.976502146000001,-0.0036413073539733887,0.081884026527404785,0.060937881469726562,,0.10213558790943182
13.993259745000001,0.028067171573638916,0.10102009773254395,0.24832916259765625,,0.26955555876755727
14.010016031000001,0.027685821056365967,0.10595852136611938,0.047854423522949219,,0.11951468022118994
14.026773123000002,0.066963791847229004,0.0821341872215271,-0.11918067932128906,,0.159481059855344
14.043530284000001,0.036681056022644043,0.019128024578094482,-0.014001846313476562,,0.043674167369083923
14.060287455000001,0.063959836959838867,-0.039618849754333496,-0.014130592346191406,,0.076551862419146049
14.077044019000001,-0.047553598880767822,-0.070398926734924316,0.032504081726074219,,0.090960810137099793
14.093801312,-0.22268524765968323,-0.078274965286254883,0.064626693725585938,,0.24472903231476145
14.110557934000001,-0.2728082537651062,-0.01846778392791748,-0.0938873291015625,,0.28910246095701075
14.127315179,-0.15175837278366089,0.030892074108123779,-0.094058990478515625,,0.18119607512990973
14.144072045000001,-0.13367944955825806,0.014556884765625,0.0117034912109375,,0.13497803463824415
14.160829146000001,-0.10751610994338989,0.0015673637390136719,-0.22645854949951172,,0.2506903372048318
14.177586105000001,-0.013985812664031982,0.0040975809097290039,-0.24956130981445312,,0.24998648059743278
14.194343174,0.031990468502044678,-0.034216701984405518,0.0045900344848632812,,0.04706634876684368
14.211099665000001,0.026554286479949951,-0.00041782855987548828,-0.013951301574707031,,0.029999058765120004
14.227856970000001,0.026725113391876221,0.074972033500671387,-0.18146133422851562,,0.19814957308313205
14.24461404,0.089710891246795654,0.097423970699310303,-0.21045684814453125,,0.24865952426167945
14.261371353000001,0.12363988161087036,0.062030196189880371,-0.16725635528564453,,0.21704666306474937
14.278127458,0.084113359451293945,-0.01058584451675415,-0.24792289733886719,,0.26201694671760062
14.294884986000001,0.077649295330047607,-0.13055798411369324,-0.15742397308349609,,0.21876267410707348
14.311641873000001,-0.080657541751861572,-0.21449550986289978,-0.00521087646484375,,0.22921848971304756
14.328396004,-0.19420430064201355,-0.14755412936210632,-0.12077140808105469,,0.27216403967009206
14.345158842,-0.11657136678695679,-0.0088050961494445801,-0.077726364135742188,,0.14038447547553884
14.361912616000001,-0.083412468433380127,0.060380160808563232,0.013661384582519531,,0.10387510355291635
14.378669767000002,0.0042557120323181152,0.11066019535064697,-0.22509288787841797,,0.25085971795685214
14.395427195000002,0.13026189804077148,0.076478719711303711,-0.10935401916503906,,0.18648179041775695
14.412183552,0.02723318338394165,-0.0065187811851501465,0.044115066528320312,,0.052252080151524972
14.428940531,-0.014222621917724609,-0.0070785880088806152,-0.075640678405761719,,0.077291018961441291
14.445697429000001,-0.07283782958984375,0.027494430541992188,-0.009784698486328125,,0.078466766561748308
14.462454895,-0.091867923736572266,0.068524181842803955,0.009185791015625,,0.1149767701123886
14.479211436000002,0.0067127346992492676,0.11643606424331665,-0.095731735229492188,,0.15088731886300408
14.495968680000001,0.15754342079162598,0.08626091480255127,0.10676383972167969,,0.20894830061385244
14.512725456,0.15703028440475464,0.016428768634796143,0.17074394226074219,,0.23255517297586276
14.529482576000001,0.11915278434753418,-0.0078002810478210449,-0.05846405029296875,,0.13295215522455348
14.546239342000002,0.1137462854385376,-0.021716535091400146,-0.0587615966796875,,0.12985665401429203
14.562996514000002,0.13725155591964722,-0.047547876834869385,0.036511421203613281,,0.14977274141904334
14.579753513000002,0.13288962841033936,-0.036582648754119873,0.088759422302246094,,0.16393955769225999
14.596510594000002,0.05150449275970459,-0.014999985694885254,0.10688686370849609,,0.11959311844215721
14.613250768,-0.0009352564811706543,0.004092097282409668,0.025151252746582031,,0.025499127035581562
14.63002449,-0.038972377777099609,0.014780163764953613,0.038826942443847656,,0.056963417471721921
14.646781307000001,-0.10692250728607178,0.0192718505859375,0.091618537902832031,,0.14211890541655406
14.663538356,-0.10510104894638062,0.017511606216430664,-0.0041723251342773438,,0.10663158602841349
14.680295091000001,-0.049676418304443359,0.0034965872764587402,0.096207618713378906,,0.10833225999968257
14.697052334,-0.022234201431274414,0.0077264308929443359,0.24022197723388672,,0.24137244207611588
14.713806118000001,0.049508392810821533,0.045694649219512939,0.17440319061279297,,0.18696404686978493
14.730569424,0.080103158950805664,0.053087830543518066,0.26090908050537109,,0.27804384926819287
14.747322823000001,-0.032056868076324463,0.07647472620010376,0.17908477783203125,,0.19735091636319224
14.764080290000001,-0.013973712921142578,0.11761611700057983,-0.10380172729492188,,0.15749163222376586
14.780837207000001,0.015175342559814453,0.08338010311126709,0.00064373016357421875,,0.084752268436760689
14.797594593000001,-0.01100456714630127,-0.020435690879821777,0.14853954315185547,,0.15034198960894132
14.814350697,-0.076477408409118652,-0.091036140918731689,0.11485004425048828,,0.16530851646146191
14.831107981000001,-0.20436599850654602,-0.11958935856819153,0.019047737121582031,,0.23754976808614642
14.847865113000001,-0.12103331089019775,-0.10176151990890503,0.0049295425415039062,,0.15820483453068757
14.864622356000002,-0.017965793609619141,-0.084844529628753662,0.19788169860839844,,0.21605214785345905
14.881375540000001,0.019096076488494873,-0.0043363571166992188,0.021732330322265625,,0.029253347014214639
14.898139172,0.19280546903610229,0.10244685411453247,-0.15472793579101562,,0.26760052489175795
14.914879763,0.25239008665084839,0.11864721775054932,0.089238166809082031,,0.29281627095333101
14.931650210000001,0.17412745952606201,0.11448538303375244,0.055162429809570312,,0.21556940588098569
14.948406722000001,0.11003410816192627,0.082614719867706299,0.025861740112304688,,0.14000545167759171
14.965163994000001,-0.068555533885955811,-0.029107034206390381,0.26397037506103516,,0.27427621037294503
14.98192077,-0.21169993281364441,-0.037909448146820068,0.10534477233886719,,0.23948175060163929
14.998678226000001,-0.099662899971008301,0.034088969230651855,-0.027972221374511719,,0.10898255191756259
15.015434514000001,0.065099596977233887,0.04781109094619751,0.078403472900390625,,0.11256536992746098
15.032191746000001,0.20678025484085083,0.013073980808258057,0.089369773864746094,,0.2256456497406005
15.048948755000001,0.16538429260253906,-0.024426102638244629,0.089825630187988281,,0.1897820923280317
15.065705837000001,0.072030365467071533,-0.068992555141448975,0.079329490661621094,,0.12744219985114036
15.082462327000002,-0.043998837471008301,-0.054180264472961426,0.13534069061279297,,0.15227771108309973
15.099219753000002,-0.1279597282409668,-0.039909064769744873,0.22560405731201172,,0.2624187801548114
15.115974098000001,-0.093709826469421387,0.023885428905487061,0.13901233673095703,,0.16934129754530974
15.132735328000001,-0.0029377341270446777,0.083215951919555664,-0.019097328186035156,,0.085429695536880706
15.14949131,0.054107010364532471,0.097079455852508545,-0.033132553100585938,,0.11597308047202129
15.166247628000001,0.13735902309417725,0.05126500129699707,0.12605667114257812,,0.1933543015371417
15.183004474000001,-0.0052016377449035645,-0.033021271228790283,0.18333911895751953,,0.18636172871304355
15.199761972000001,-0.08336329460144043,-0.041290044784545898,0.039463043212890625,,0.10105265194312728
15.216518177000001,0.017232775688171387,-0.042870640754699707,0.063506126403808594,,0.078535905721229607
15.233275329000001,0.087753653526306152,0.0041960477828979492,0.092345237731933594,,0.12745961500011946
15.250032542000001,0.20280158519744873,0.1097182035446167,0.097681045532226562,,0.25041596155981133
15.266789531000001,0.18634206056594849,0.12017577886581421,0.13662910461425781,,0.26044787115594265
15.28354597,0.21489888429641724,0.10591542720794678,-0.10182762145996094,,0.26032378432382985
15.300290376000001,0.20487946271896362,0.12401664257049561,-0.03084564208984375,,0.24146878786792303
15.317060416,0.12631809711456299,0.068307697772979736,0.069416046142578125,,0.15950169496202052
15.333817579000002,0.14658081531524658,-0.035103261470794678,0.078812599182128906,,0.17008703705518627
15.350573997000001,0.13788056373596191,-0.12546876072883606,0.031465530395507812,,0.18905961858114279
15.367331160000001,0.16683471202850342,-0.12201884388923645,0.0171661376953125,,0.20740563079404076
15.384088189000002,0.22788280248641968,-0.09513401985168457,0.15138053894042969,,0.28964999736250685
15.400845574000002,0.11542600393295288,-0.072999894618988037,0.20342731475830078,,0.24502003874803013
15.4176041,-0.024779379367828369,-0.00047433376312255859,0.0009403228759765625,,0.024801750774586077
15.434357081000002,-0.11642229557037354,0.072618365287780762,0.032465934753417969,,0.14100218013335175
15.451116073000001,-0.12678542733192444,0.1019141674041748,0.29024505615234375,,0.33272095624156595
15.467873480000002,-0.098040997982025146,0.12646484375,0.38088035583496094,,0.41312859916857586
15.484629716000001,-0.091733932495117188,0.14198815822601318,0.14272499084472656,,0.22123782330121888
15.501387284000002,0.038151383399963379,0.097716927528381348,0.0001983642578125,,0.10490074036581777
15.518143826000001,0.15755867958068848,-0.015439033508300781,0.10206794738769531,,0.18836392210510439
15.534900083,0.18910551071166992,-0.098635554313659668,-0.045240402221679688,,0.21802880715507245
15.551658872000001,0.20412075519561768,-0.094161868095397949,-0.19452953338623047,,0.29727677249376372
15.568415078000001,0.11262774467468262,-0.041954159736633301,0.047505378723144531,,0.12923591372889284
15.585171945000001,0.0070403218269348145,0.063626587390899658,0.25152492523193359,,0.25954324642989346
15.601929045,-0.061205863952636719,0.18015366792678833,0.19835853576660156,,0.27485925591315702
15.618685597000001,-0.044971883296966553,0.19788920879364014,0.10818004608154297,,0.22996854483701382
15.635442810000001,0.080076217651367188,0.068637609481811523,0.047131538391113281,,0.11551927968888907
15.652200195000001,0.23204904794692993,-0.042001962661743164,-0.012767791748046875,,0.23616507368075523
15.668957244000001,0.36427265405654907,-0.13435354828834534,0.051037788391113281,,0.39159966582586236
15.685713451000002,0.31422001123428345,-0.18435832858085632,-0.0064105987548828125,,0.36436699158073621
15.702470786000001,0.20013153553009033,-0.10396063327789307,-0.10384559631347656,,0.24828280781978021
15.719227876000001,0.12698483467102051,-0.0094475746154785156,0.0090694427490234375,,0.12765837103112063
15.735984988,0.036520004272460938,0.090077340602874756,0.093763351440429688,,0.13505259744073198
15.752741519000001,-0.014064878225326538,0.18366903066635132,0.087921142578125,,0.20411335315861467
15.769494479,-0.078522533178329468,0.17163324356079102,0.26920795440673828,,0.3287805974016717
15.786255537000001,-0.13374069333076477,0.054417252540588379,0.11706447601318359,,0.18588141911148914
15.803013045,0.00077366828918457031,-0.0087507963180541992,-0.16938972473144531,,0.16961737482762954
15.819769322000001,0.097786366939544678,-0.047926366329193115,-0.00128936767578125,,0.10890717431720759
15.836526494000001,0.11599332094192505,-0.059415280818939209,0.16166782379150391,,0.20765623358669152
15.853283615,0.080713510513305664,0.01725471019744873,0.22825145721435547,,0.24271613774913317
15.870041000000001,-0.086253553628921509,0.080617308616638184,0.15578556060791016,,0.19546858278538876
15.886797257000001,-0.064767152070999146,0.1533125638961792,-0.011966705322265625,,0.16686140438123462
15.903554398000001,0.054721713066101074,0.11379158496856689,0.04611968994140625,,0.1344247614498115
15.920311397000001,0.18178975582122803,0.01082080602645874,0.19080543518066406,,0.26376375653051076
15.937068672000001,0.21178668737411499,-0.038449764251708984,0.22006320953369141,,0.3078308001324469
15.953825243000001,0.13161176443099976,-0.02634429931640625,0.16271877288818359,,0.21093382301885502
15.970582649000001,0.095602631568908691,0.029139995574951172,0.13793373107910156,,0.17033706782262803
15.987339303000001,0.091919124126434326,0.065858304500579834,0.15207576751708984,,0.18950852412958605
16.004096465,0.098649203777313232,0.036802113056182861,0.17113685607910156,,0.20093253703653138
16.020852996000002,0.10867047309875488,-0.038325071334838867,0.16204452514648438,,0.19883790118153355
16.037610432000001,0.10001879930496216,-0.10332715511322021,0.11876106262207031,,0.18650590122921332
16.054367462000002,0.079611778259277344,-0.1075170636177063,0.16160678863525391,,0.20979682633342642
16.071124450999999,-0.0025896430015563965,-0.042324244976043701,0.15112876892089844,,0.15696481376160068
16.087881135,-0.082954317331314087,0.031705856323242188,0.0062713623046875,,0.089028142035263713
16.104638286,-0.10215190052986145,0.079232513904571533,0.062844276428222656,,0.14374353940712498
16.121398113000001,-0.14905869960784912,0.053027749061584473,0.24857044219970703,,0.29464843938951935
16.138148125000001,-0.22904936969280243,0.040664911270141602,0.19126415252685547,,0.30116311993186484
16.154910322000003,-0.20061033964157104,0.051542699337005615,0.081307411193847656,,0.2225130408337832
16.171666293000001,-0.12207344174385071,0.037077784538269043,0.072627067565917969,,0.14680387674949197
16.188423242000002,-0.025868922472000122,0.049495100975036621,0.001277923583984375,,0.05586232414676217
16.205179772000001,0.037750512361526489,0.045686125755310059,-0.007587432861328125,,0.05974857661495319
16.221937504,-0.04988667368888855,-0.018752634525299072,-0.036563873291015625,,0.064631713140087269
16.238693984000001,-0.098430603742599487,-0.079618334770202637,-0.18603324890136719,,0.22502451573442112
16.255451014000002,-0.075739383697509766,-0.14817586541175842,-0.0037708282470703125,,0.16645347842286462
16.272208410000001,-0.096217215061187744,-0.18407204747200012,0.18757820129394531,,0.27986756284953246
16.288964921000002,-0.071497082710266113,-0.084434270858764648,0.054233551025390625,,0.12321630163397015
16.305721809000001,0.044486463069915771,0.006136476993560791,-0.030975341796875,,0.054554317389155484
16.322478837000002,0.31498140096664429,0.037692546844482422,0.11375141143798828,,0.3370065201842064
16.339226518,0.38200581073760986,0.07764822244644165,-0.48043918609619141,,0.61869176285381522
16.355992703000002,0.22111222147941589,0.12255877256393433,-0.23768806457519531,,0.34699694993103708
16.372749998,-0.062910646200180054,0.0097082853317260742,-0.0093793869018554688,,0.064342622794389834
16.389506702000002,-0.081966817378997803,-0.12737703323364258,0.17213630676269531,,0.2292910287223362
16.406260975000002,-0.096173256635665894,-0.24114081263542175,0.39687633514404297,,0.47424572977281299
16.423020679,-0.10716080665588379,-0.21607688069343567,0.085661888122558594,,0.2559504169366924
16.439777841000002,-0.042879581451416016,-0.008378446102142334,-0.18267440795898438,,0.18782650555153438
16.456534586,-0.010601252317428589,0.18874114751815796,-0.23577976226806641,,0.30220473790520685
16.473292023000003,0.034118324518203735,0.2097896933555603,-0.16922378540039062,,0.27168449541957107
16.490048523000002,-0.069055646657943726,0.027004897594451904,0.18417835235595703,,0.19854372895155534
16.506805818,-0.33188977837562561,-0.15642857551574707,0.36558341979980469,,0.51794976692786332
16.523562725000001,-0.52979040145874023,-0.1773780882358551,0.082530975341796875,,0.56475854801400593
16.540320090000002,-0.41822171211242676,-0.079860270023345947,-0.036713600158691406,,0.42735810703327431
16.557076459000001,-0.10209164023399353,0.037502586841583252,-0.021334648132324219,,0.11083462562037075
16.573833621000002,0.19911634922027588,0.10916674137115479,-0.07666778564453125,,0.23967195769226579
16.590590701,0.36420956254005432,0.058077573776245117,-0.017384529113769531,,0.36922057347046688
16.607347945000001,0.18378153443336487,-0.069710433483123779,-0.022789955139160156,,0.19787516011448236
16.624104211000002,-0.092357128858566284,-0.096502959728240967,-0.13469314575195312,,0.1896968739854856
16.640845260000003,-0.20803043246269226,-0.051791965961456299,0.069958686828613281,,0.22550673256368955
16.657621617,-0.27723857760429382,-0.023194193840026855,0.25136470794677734,,0.37494455048861486
16.674375870000002,-0.1900203675031662,0.059122085571289062,0.098783493041992188,,0.22217411992829966
16.691132086,-0.011016249656677246,0.088948190212249756,0.091249465942382812,,0.12790466501775016
16.707889218000002,0.12748661637306213,0.070865452289581299,0.074002265930175781,,0.16355758938447243
16.724646613000001,0.17172139883041382,0.08645707368850708,-0.0582122802734375,,0.20087741033199136
16.741403653000003,0.068258523941040039,0.073061823844909668,-0.029709815979003906,,0.1043068998660224
16.758160276000002,-0.024086833000183105,-0.01724475622177124,0.056062698364257812,,0.063408069589041924
16.774913327,-0.068808853626251221,-0.13319343328475952,0.20876884460449219,,0.25702058183156296
16.791678149000003,-0.12986677885055542,-0.19857653975486755,0.25119590759277344,,0.34553929788287863
16.808431619,-0.053539425134658813,-0.18683823943138123,0.20421600341796875,,0.28192050973559141
16.825188150000002,-0.01612246036529541,-0.13289022445678711,0.21923542022705078,,0.25687334421176777
16.841945332000002,0.0055677890777587891,-0.015754938125610352,0.30638217926025391,,0.30683751093831174
16.858702107000003,-0.012534976005554199,0.11531567573547363,0.25381088256835938,,0.27906055759264553
16.875459432,0.012993097305297852,0.18222540616989136,0.19631290435791016,,0.26816725312536727
16.892215973000003,0.060197591781616211,0.17936629056930542,0.30615806579589844,,0.35990106626791796
16.908973329000002,0.072279214859008789,0.12522149085998535,0.43563747406005859,,0.45900404734518452
16.925730409,0.032983541488647461,0.054323375225067139,0.31707859039306641,,0.32338487223528367
16.942474611000002,0.032724678516387939,-0.026806294918060303,0.26462078094482422,,0.26798067045793361
16.959243675,-0.053301215171813965,-0.12968111038208008,0.40836811065673828,,0.43176697850817086
16.976001295,-0.11668187379837036,-0.17584589123725891,0.27912235260009766,,0.34992245549426798
16.992758181999999,-0.06592637300491333,-0.13655239343643188,0.30738925933837891,,0.34275501392014418
17.009515353000001,-0.12912216782569885,-0.058912754058837891,0.37838649749755859,,0.40412818301038467
17.026271977,-0.016052067279815674,0.054369986057281494,0.18226528167724609,,0.19087796403123797
17.043028975000002,0.091344952583312988,0.10534125566482544,0.35569000244140625,,0.38204195887920139
17.059786147000001,0.063066005706787109,0.060135722160339355,0.37097930908203125,,0.38107646729040523
17.076543107000003,0.1229439377784729,0.022958099842071533,0.22373199462890625,,0.2563167797969233
17.093299789,0.053396880626678467,-0.009296119213104248,0.29024028778076172,,0.29525763215223305
17.110057043000001,0.077039539813995361,0.012385368347167969,0.16087150573730469,,0.17879633497931344
17.126811276000002,0.14704227447509766,0.053240299224853516,0.37599372863769531,,0.40721891399987642
17.143573880000002,-0.021530449390411377,0.073113143444061279,0.55742454528808594,,0.56261106964301222
17.160327369000001,-0.013787269592285156,0.11802446842193604,0.18398284912109375,,0.21901952588709089
17.177085030000001,-0.017352283000946045,0.079546689987182617,0.27935314178466797,,0.29097586744990839
17.193841896000002,-0.095152080059051514,-0.03823012113571167,0.41364765167236328,,0.42616879312741346
17.21059919,-0.1550176739692688,-0.087075769901275635,0.21757030487060547,,0.28097954820276622
17.227355376000002,-0.15064471960067749,-0.13896328210830688,0.25076484680175781,,0.32386360355771487
17.244112568000002,-0.055863618850708008,-0.12924861907958984,0.40458774566650391,,0.42838906777435598
17.260869791000001,-0.054827749729156494,-0.011335909366607666,0.42378425598144531,,0.42746658419024769
17.277626994000002,-0.028272092342376709,0.090196311473846436,0.25208950042724609,,0.26922815980978199
17.294383504000002,0.063967525959014893,0.13827937841415405,0.22438812255859375,,0.27122511022634416
17.311140595000001,0.099939405918121338,0.12816202640533447,0.40703868865966797,,0.43828516280313529
17.327897514,0.11381512880325317,0.090637862682342529,0.47980117797851562,,0.50137638165922371
17.344654909000003,0.11170470714569092,0.038213253021240234,0.361114501953125,,0.37992351575787386
17.361411450000002,0.069172263145446777,-0.0069960355758666992,0.30343532562255859,,0.31129847949855116
17.378168714000001,0.080595612525939941,-0.043637752532958984,0.33191967010498047,,0.34434078121413136
17.394925408000002,0.10156506299972534,-0.07266467809677124,0.30310726165771484,,0.32782560841807945
17.411682580000001,0.076686322689056396,-0.09302973747253418,0.35558128356933594,,0.37546421050027551
17.428439345000001,-0.041521012783050537,-0.085000336170196533,0.43133544921875,,0.44158727495741712
17.445196548000002,-0.085797369480133057,-0.053236484527587891,0.41207981109619141,,0.42427005858019179
17.461953394000002,-0.046135842800140381,0.0046254992485046387,0.41226863861083984,,0.41486786042812768
17.478710647,-0.013387858867645264,0.073686420917510986,0.37929821014404297,,0.38662133362137063
17.495467189000003,0.10105299949645996,0.10996383428573608,0.29418468475341797,,0.3299217820961815
17.512224239000002,0.16176700592041016,0.068896114826202393,0.29442977905273438,,0.34293459089984091
17.528982621000001,0.1578977108001709,0.015020251274108887,0.31359291076660156,,0.35142255008371548
17.545737301000003,0.075292468070983887,-0.027047991752624512,0.41865730285644531,,0.4262329021099891
17.56249489,-0.041778028011322021,-0.055658280849456787,0.37451076507568359,,0.38092198808838235
17.579252408000002,0.0028185248374938965,-0.010597646236419678,0.34044933319091797,,0.34062589839610341
17.596009408,-0.023014724254608154,0.031606614589691162,0.46479225158691406,,0.46643380318494299
17.612761676000002,0.017267704010009766,0.064025402069091797,0.42675685882568359,,0.43187827251049643
17.629527759000002,0.020531415939331055,0.04043734073638916,0.41725921630859375,,0.41971653667775172
17.646280314000002,-0.08248823881149292,-0.022225320339202881,0.31182098388671875,,0.32331192430605371
17.663036935000001,-0.026993274688720703,-0.046043276786804199,0.071934700012207031,,0.089572435947300272
17.679794626,0.026836812496185303,-0.075024962425231934,0.29154205322265625,,0.30223455839652918
17.696550731000002,-0.058366537094116211,-0.11702901124954224,0.4781646728515625,,0.49572562621842148
17.713308005000002,-0.10544019937515259,-0.092799901962280273,0.35366630554199219,,0.38053818878557055
17.730065156000002,-0.11496621370315552,-0.020576119422912598,0.34825038909912109,,0.36731313683481948
17.746822491,0.0073743462562561035,0.090899288654327393,0.31592082977294922,,0.32882066897474471
17.763578788,0.16756653785705566,0.18877041339874268,0.33596897125244141,,0.42022370617155341
17.780335879000003,0.16513156890869141,0.18997371196746826,0.39886569976806641,,0.47164848429780182
17.797093052000001,0.14671498537063599,0.10412585735321045,0.29411411285400391,,0.34477614836549353
17.813850181999999,0.08916318416595459,-0.0170326828956604,0.22175025939941406,,0.2396108579362452
17.830606875000001,0.073476672172546387,-0.085433900356292725,0.21628379821777344,,0.24387794909574614
17.847363804,0.051388025283813477,-0.12570929527282715,0.35454368591308594,,0.37966403738225935
17.864120803000002,-0.11334192752838135,-0.13833463191986084,0.39202022552490234,,0.43088597116272831
17.880878321000001,-0.13427475094795227,-0.081666886806488037,0.21893501281738281,,0.26950274391951173
17.89763473,-0.086132705211639404,-0.017007410526275635,0.35789680480957031,,0.36850809735036233
17.914376461,-0.03122556209564209,0.012645721435546875,0.28734207153320312,,0.28931024190617011
17.931148759000003,0.15476125478744507,0.029691994190216064,0.22609901428222656,,0.27559648902293876
17.947906206000003,0.1065555214881897,-0.0063121914863586426,0.32684326171875,,0.34383199480550358
17.964662371000003,0.10694032907485962,0.0065905451774597168,0.16412734985351562,,0.19600371485845292
17.981420529000001,0.10960215330123901,0.034057140350341797,0.28825092315673828,,0.31025975491162727
17.998176043000001,0.028146266937255859,0.0069588422775268555,0.28728389739990234,,0.28874326924384641
18.014933836000001,0.010303974151611328,0.039150834083557129,0.08081817626953125,,0.090391024489648961
18.031690641000001,-0.087365865707397461,-0.0073501467704772949,0.26638889312744141,,0.28044582637296273
18.048447713000002,-0.11758095026016235,-0.084632992744445801,0.33356666564941406,,0.36366845306876999
18.065204640000001,-0.08652949333190918,-0.07149660587310791,0.22428417205810547,,0.25080372346406921
18.081961720000002,-0.11296576261520386,-0.051040232181549072,0.16691684722900391,,0.20791248811279148
18.0987182,0.025917947292327881,-0.015859842300415039,0.10961437225341797,,0.11374790193297109
18.115475414000002,0.13312417268753052,0.023170888423919678,0.29252338409423828,,0.32222486816823814
18.132232698000003,0.058613598346710205,0.021173655986785889,0.37874412536621094,,0.38383719220316875
18.148990011000002,0.070874392986297607,0.00041246414184570312,0.097069740295410156,,0.12019103206505398
18.165746055,0.14779466390609741,-0.0055428743362426758,0.048907279968261719,,0.155775184701921
18.182503684,0.21614253520965576,0.019713699817657471,0.24053573608398438,,0.32398096521373315
18.199260643000002,0.17642951011657715,0.011817693710327148,0.25040817260742188,,0.3065473582225019
18.216017622000003,0.056917667388916016,-0.027920246124267578,0.23558902740478516,,0.24396997937895468
18.232774326000001,-0.072931230068206787,-0.096150875091552734,0.30123710632324219,,0.32451155499632584
18.249531315000002,-0.12171053886413574,-0.10705447196960449,0.22902584075927734,,0.28058323359527915
18.266275385,-0.048999249935150146,-0.073457300662994385,0.24810695648193359,,0.26335140662170187
18.283045679000001,-0.051849842071533203,-0.06265491247177124,0.27212047576904297,,0.28401337558723982
18.299802251000003,-0.038431525230407715,-0.033049583435058594,0.14286136627197266,,0.15158702803954266
18.316559251000001,-0.013722777366638184,0.015673160552978516,0.16189861297607422,,0.16323334054031494
18.333316189000001,-0.004371941089630127,0.01954340934753418,0.32954883575439453,,0.33015677164779367
18.350073675000001,-0.053725302219390869,0.013604044914245605,0.34351825714111328,,0.34796015738279823
18.366829860999999,-0.059676706790924072,0.018878459930419922,0.26215648651123047,,0.26952500626596293
18.383584155000001,0.0016696453094482422,0.0072845816612243652,0.20061492919921875,,0.20075408504696973
18.400347410000002,0.083872973918914795,0.0096840858459472656,0.096256256103515625,,0.12803797917704038
18.417101317,0.18810635805130005,0.0066893100738525391,0.082100868225097656,,0.20535165295634436
18.433858133000001,0.10678577423095703,-0.041377663612365723,0.14410781860351562,,0.18407165997726752
18.450615263,-0.014999687671661377,-0.087776243686676025,0.12863636016845703,,0.15645118325976037
18.467372273000002,-0.10455125570297241,-0.096364855766296387,0.10427951812744141,,0.17632744652157475
18.484129292000002,-0.040041804313659668,-0.058776378631591797,0.11376476287841797,,0.13416568134407666
18.500885721,0.096375942230224609,-0.0080168843269348145,0.27287483215332031,,0.28950521013926117
18.517643118000002,0.12708699703216553,0.0094327330589294434,0.22610950469970703,,0.25954881888223169
18.534400178000002,0.22504705190658569,0.042549252510070801,-0.01192474365234375,,0.22934431314550913
18.551157603,0.25836670398712158,0.01357954740524292,0.074271202087402344,,0.26917274991426587
18.567913627000003,0.19851750135421753,-0.074516892433166504,0.16973495483398438,,0.2716098681828637
18.584670901000003,0.10829907655715942,-0.094521582126617432,0.11563014984130859,,0.1844813026384404
18.601428001000002,-0.016412973403930664,-0.079340517520904541,0.12822532653808594,,0.15167741355337605
18.618185662000002,-0.080473661422729492,-0.028171539306640625,0.16109180450439453,,0.18226413604482852
18.634938846000001,-0.045904219150543213,0.025967240333557129,0.19953155517578125,,0.20638395387536224
18.651701786,-0.02950894832611084,0.033148288726806641,0.18569850921630859,,0.19092805818419739
18.668446772000003,-0.0099481940269470215,-0.0012664198875427246,0.085452079772949219,,0.086038528121137825
18.685210352000002,-0.040359616279602051,-0.023917913436889648,0.12857627868652344,,0.13686790949775557
18.701972732000002,-0.013955295085906982,-0.045572578907012939,0.14295196533203125,,0.15068800417239894
18.718727025,0.081181704998016357,-0.038335442543029785,0.28227996826171875,,0.29621285566833833
18.735483588000001,0.015263795852661133,-0.0063145160675048828,0.36314964294433594,,0.36352512945819465
18.752241268000002,0.044578790664672852,0.055738866329193115,0.18622684478759766,,0.19943552220287231
18.768997626000001,0.089887619018554688,0.04484027624130249,0.13917922973632812,,0.17164292125286948
18.785754951000001,0.14910286664962769,0.0032736063003540039,0.11558914184570312,,0.18868818472276544
18.802511635000002,0.1722680926322937,-0.044168174266815186,0.03481292724609375,,0.18121551605939845
18.819260099000001,0.090819716453552246,-0.087980031967163086,0.062396049499511719,,0.14100345355625934
18.836025501000002,0.049383163452148438,-0.13770866394042969,0.13845443725585938,,0.20142493428728359
18.852782825000002,0.0023837089538574219,-0.14967894554138184,0.16220951080322266,,0.22072923277576412
18.8695396,-0.012939691543579102,-0.091800332069396973,0.15688896179199219,,0.18223304562417791
18.88630311,0.070194780826568604,-0.026041686534881592,0.10985660552978516,,0.132943410785935
18.903053487000001,0.18363404273986816,0.034721910953521729,0.14858436584472656,,0.23875591411885813
18.919808126,0.15680885314941406,0.08245849609375,0.20170974731445312,,0.26846832618716499
18.936569968000001,0.10353004932403564,0.084998667240142822,0.053208351135253906,,0.14413317860981995
18.953324840000001,0.087463259696960449,0.070097863674163818,-0.014562606811523438,,0.11302920775466238
18.9700813,0.06054532527923584,0.01122361421585083,0.051255226135253906,,0.080117439645876962
18.986838686000002,0.052053511142730713,-0.042971312999725342,0.17551708221435547,,0.18804879130759541
19.003595818000001,-0.038434505462646484,-0.10596144199371338,0.2808685302734375,,0.30264198270812687
19.020352633000002,-0.13904941082000732,-0.11471438407897949,0.12763881683349609,,0.22087506904733625
19.037093733000003,-0.07300102710723877,-0.082420170307159424,0.036489486694335938,,0.11599015937306532
19.053866530000001,0.0063489675521850586,-0.071395158767700195,0.17532730102539062,,0.18941288385242372
19.070623631,0.006425321102142334,-0.059147775173187256,0.13718128204345703,,0.14952741622287882
19.087380823,-0.0010767579078674316,-0.046694397926330566,0.036334037780761719,,0.059175066596907848
19.104136998000001,0.014738619327545166,-0.045736193656921387,0.20830535888671875,,0.21377593141144399
19.120894557,-0.033111572265625,-0.038039207458496094,0.27092361450195312,,0.27557750709514578
19.137651373000001,0.010371387004852295,0.024118900299072266,0.060778617858886719,,0.066206702144704282
19.154407467000002,0.098181664943695068,0.05279076099395752,0.09984588623046875,,0.14965194544203178
19.171162919,0.098667800426483154,0.031893610954284668,0.16722965240478516,,0.19676964680592596
19.187925402000001,0.1616632342338562,0.020833432674407959,0.110107421875,,0.19670454385170916
19.204679380000002,0.14186775684356689,-0.023711442947387695,0.20092201232910156,,0.24709987453830948
19.221436623000002,0.072931110858917236,-0.063935399055480957,0.16709232330322266,,0.19320074195087336
19.238191903000001,0.069044947624206543,-0.040441215038299561,0.032708168029785156,,0.086443744262196739
19.254951313000003,0.093956351280212402,-0.04313129186630249,0.13783168792724609,,0.17229532344442955
19.271707142,0.077906191349029541,-0.080772578716278076,0.11874675750732422,,0.16338413797395451
19.288464457,0.033615469932556152,-0.094995379447937012,0.013200759887695312,,0.10162864752055252
19.305220642000002,-0.0012267231941223145,-0.094283521175384521,0.12221717834472656,,0.15436296802527114
19.321978272000003,-0.062798082828521729,-0.091176092624664307,0.22733974456787109,,0.25286367578880148
19.338734924000001,-0.067153632640838623,-0.060236334800720215,0.17002105712890625,,0.19247126090488409
19.355504681000003,-0.018946290016174316,0.0082566142082214355,0.036103248596191406,,0.041600218061433131
19.372248831,0.15275764465332031,0.075387895107269287,0.041750907897949219,,0.17538919875248235
19.389006156000001,0.21896630525588989,0.082987427711486816,0.17175769805908203,,0.29040293186904914
19.405763044,0.15842759609222412,0.067178785800933838,0.071763992309570312,,0.18644667617701507
19.422520368000001,0.092525184154510498,0.013748288154602051,-0.038904190063476562,,0.10130874164899671
19.439259565,0.01480710506439209,-0.059930026531219482,0.021767616271972656,,0.065457524843095513
19.456034031000002,-0.0014766454696655273,-0.092520952224731445,0.083562850952148438,,0.12467981850189347
19.472791091000001,-0.010758638381958008,-0.08123701810836792,0.0068712234497070312,,0.082233904946006547
19.489548201000002,0.07396775484085083,-0.073927104473114014,0.031307220458984375,,0.10916312374076868
19.506304621000002,0.035839617252349854,-0.094148039817810059,0.12256431579589844,,0.15865164062450662
19.523062047,0.0352974534034729,-0.097368180751800537,0.070406913757324219,,0.12523420596832532
19.539818852,0.065458714962005615,-0.11112970113754272,0.13277721405029297,,0.18510657041378617
19.556572648,0.036388993263244629,-0.092770516872406006,0.15174770355224609,,0.18154308900331675
19.573335660000001,0.066959857940673828,0.0014883279800415039,-0.0017595291137695312,,0.066999504761703993
19.590089647000003,0.14456760883331299,0.049966990947723389,-0.016495704650878906,,0.153846033358292
19.606847227000003,0.16353297233581543,0.040734291076660156,0.17977809906005859,,0.24641931826087193
19.623604195000002,0.026618480682373047,0.00095713138580322266,0.21777439117431641,,0.21939723121696805
19.640360674,-0.076381325721740723,0.0043308734893798828,0.021410942077636719,,0.079443639297577362
19.657117614000001,-0.057411253452301025,0.016303658485412598,-0.041229248046875,,0.072537660545981625
19.673874663000003,0.049918532371520996,0.0079843401908874512,0.16470146179199219,,0.17228517370577617
19.690631967000002,0.05168837308883667,-0.027191877365112305,0.12698078155517578,,0.13976839768550453
19.707388530000003,0.12587589025497437,-0.045392990112304688,-0.11174392700195312,,0.17433292437355594
19.724145884000002,0.14452064037322998,-0.093566954135894775,0.0028820037841796875,,0.17218971033708469
19.740902618,0.088426351547241211,-0.132060706615448,0.11320877075195312,,0.19512938183394113
19.757659782000001,0.070625066757202148,-0.12088841199874878,0.10377216339111328,,0.17427154129378211
19.774416393000003,0.0073330998420715332,-0.11741960048675537,0.055508613586425781,,0.13008590666959341
19.791173718,0.04707789421081543,-0.036086142063140869,0.030584335327148438,,0.066737840388563466
19.807917107000002,0.081613779067993164,0.059997737407684326,0.035594940185546875,,0.10736636901103297
19.824690778000001,0.17632263898849487,0.099299609661102295,-0.03033447265625,,0.20462225130724945
19.841441002,0.17070800065994263,0.078803360462188721,-0.058946609497070312,,0.1970428732044088
19.858204747000002,0.047503471374511719,0.018489837646484375,0.0025091171264648438,,0.051036747129658687
19.874958622000001,-0.02203977108001709,-0.050638735294342041,-0.055189132690429688,,0.078076074367195575
19.891715824000002,0.033747673034667969,-0.090968132019042969,-0.05016326904296875,,0.10922664528111331
19.908472418000002,0.020989120006561279,-0.11493498086929321,0.12689018249511719,,0.17248684413519419
19.925229325,0.061013519763946533,-0.099376201629638672,0.09854888916015625,,0.15267666029560922
19.941986282000002,0.12685537338256836,-0.038613021373748779,-0.011152267456054688,,0.13306999753908388
19.958743698000003,0.1510927677154541,-0.011153042316436768,0.02266693115234375,,0.15319009294563893
19.975500231000002,0.076970398426055908,0.012799263000488281,0.099416732788085938,,0.12638018090459888
