time,acc_x
0.1519970552,0.06514165699481964
0.23578386099999998,0.3250325798988342
0.319568788,0.036401399970054656
0.40335363499999993,-0.12489445209503167
0.4871385774,0.14037385582923886
0.5709233618,0.19920032024383538
0.654708339,0.1409097850322723
0.7384931878000001,-0.09645844995975494
0.8222755241999999,0.016721922159194956
0.9060623144,0.3217733561992645
0.9898478472000001,0.19602441191673275
1.0736326816,0.12201591432094569
1.1574171792,0.29436168670654295
1.2412029032,0.09749747216701507
1.3249873492,0.21578052639961237
1.4087696146,0.1827274084091186
1.4925571309999999,0.21083716154098506
1.5763420202,0.23790509700775142
1.6601268921999999,0.1363249212503433
1.7439117316000001,-0.16082473099231717
1.8276941205999997,0.33743135929107665
1.91148147,0.09402722716331481
1.9952666568000001,0.27130755186080935
2.0790512862000003,0.17119370102882384
2.1628364832000004,0.11741595268249505
2.2466183130000004,0.13413449525833127
2.3304052964,0.2802988827228546
2.4141908592000005,0.19670084714889519
2.4979763172,0.26017864346504205
2.5817604646000003,0.17754105329513545
2.6655462694,0.058455514907836834
2.7493302726,0.15367301106452938
2.8331125538000004,0.3575015366077423
2.9168999278000003,0.3032295167446136
3.0006860262000004,0.2046749055385589
3.0844697542,0.20526821017265315
3.168254674600001,0.08473343253135676
3.2520393586,0.15394247770309444
3.3358243992,0.13204776048660272
3.4196091914,0.03521302938461302
3.5704220006,0.11888146102428432
3.6542041515999997,-0.013377198576927162
3.7379916983999997,-0.05154573917388914
3.8217766208,0.16799211502075195
3.9055574658,0.08585174083709712
3.9893436722000004,0.08838464617729182
4.073128574200001,0.0032598614692687807
4.1569161148000005,0.15681678652763362
4.240701014600001,0.272107994556427
4.324485878000001,0.13621953129768366
4.4082707354,0.08643433451652519
4.492055584200001,0.1633354187011718
4.5758393896000005,0.23289408683776855
4.6596252826,0.21955963373184204
4.743410204800001,0.19760333895683285
4.827195058,0.14127092957496637
4.910979929800001,0.22366977334022517
4.9947647524,0.14635873436927788
5.0785496338,0.3085233628749847
5.162334786000001,0.10196095705032344
5.246119122400001,0.23190922737121578
5.329904041000001,0.25731698274612425
5.4136890488,0.10970281362533565
5.4974697698,0.16196590662002563
5.581258801999999,0.20847421884536738
5.6650436505999995,0.14764063954353326
5.7488285018,0.23482323884963985
5.8326112354,0.1384122312068939
5.916398308000001,0.16192566752433774
6.0001830698,0.14629216790199276
6.0839653634,0.2372808158397674
6.1677528187999995,0.09741305112838738
6.251537556000001,0.16430546641349789
6.335322532600001,0.07412078976631162
6.4191064588,0.27222722172737124
6.5028923473999996,0.049505525827407804
6.5866772598,0.21526258587837216
6.6704620334,0.025317871570587118
6.7542470146,0.22654073834419242
6.838031811200001,0.17374016046524043
6.921816729200001,0.1096632361412048
7.005598841800001,0.10241175889968868
7.089386413,0.22194186449050898
7.1731685564,0.1664394378662109
7.256956224999999,0.08465979099273677
7.3407409040000005,0.12001144886016839
7.4245282288,0.11207180023193355
7.5083106996,0.19157322645187375
7.592095542199999,0.060908854007720906
7.675881327200001,0.07353675365447995
7.759665248600001,0.14529750347137452
7.8434501122,0.11301456689834591
7.927237323199999,0.06289130449295044
8.0110197372,0.1821764707565307
8.0948047124,-0.04311693310737609
8.178586879400001,0.15541226863861077
8.262374436600002,0.07936080694198605
8.346159243399999,0.06124200820922848
8.429944127000002,0.046096539497375466
8.513729012800002,0.10213052034378048
8.597513892200002,-0.000493001937866211
8.6812986316,-0.04824845194816589
8.7650835886,-0.03278779983520502
8.8488658618,0.05744424462318419
8.932653431000002,0.05889364480972285
9.0164381212,0.017551213502883904
9.1002230844,0.02750413417816162
9.1840079112,-0.1096912980079651
9.2677922232,0.05208592414855956
9.351578234,0.18991487026214596
9.435362511400001,0.0031844139099120815
9.5191465164,-0.20170407891273495
9.6029321996,-0.0685811340808868
9.6867171218,0.1826969146728515
9.7705019504,0.14399693012237547
9.854284159,-0.17463409304618835
9.9380691238,-0.057911193370819056
10.021856827800002,0.1819575905799865
10.105639531800001,0.2872162461280822
10.189426212,0.07776128053665153
10.273208665000002,0.008428120613098122
10.356995896199999,0.0533053874969482
10.4407810508,0.2464883208274841
10.524565716400001,0.08356244564056396
10.6083505838,0.02425769567489624
10.692135288400001,-0.0021139264106750377
10.77591699,0.06569561958312983
10.859705133199999,-0.053065633773803675
10.9434901228,-0.03501657247543336
11.0272704976,0.09180935621261592
11.111059815199999,-0.029568505287170376
11.194844637600001,0.059437131881713845
11.278627999200001,-0.15088638067245483
11.362414300800001,0.22053393125534054
11.446199213399998,0.04678075313568114
11.5299840808,-0.10541980862617491
11.613768992999999,0.023940300941467273
11.6975511342,0.08036817312240598
11.781338711999998,0.16568797826766962
11.8651235706,0.04237022399902344
11.9489109182,0.035672485828399644
12.0326932628,0.04808257818222046
12.1164755668,0.09586980342864986
12.2002615956,0.08875632286071773
12.2840479794,-0.10828780531883242
12.367832738599999,-0.05846136212348936
12.45161761,-0.1511954307556152
12.535402524,0.07977660894393916
12.6191873896,0.21060358285903927
12.702972205799998,-0.09666982889175416
12.7867571082,-0.07268353700637813
12.8705419352,0.07568316459655763
12.954327341,0.09357312917709347
13.038111200000003,-0.1236674547195434
13.121896561400002,-0.03109153509140013
13.2056814798,-0.06943647265434263
13.289466487800002,0.012513732910156238
13.373250811600002,-0.12095634341239928
13.457033642199999,-0.004846870899200423
13.540818406400001,-0.023251795768737805
13.624605859799999,0.06229267120361327
13.708390774000003,0.00332213640213016
13.7921755882,-0.06516800522804254
13.875954195199999,0.09061450958251949
13.959745419199999,-0.00783898830413816
14.043530182400001,0.029547381401061983
14.1273151232,-0.1776894867420196
14.2110999908,0.032198989391326885
14.294884334799999,0.0021081387996673582
14.3786703944,-0.007646608352661144
14.4624545942,-0.0029344439506530763
14.5462394802,0.13201410770416255
14.630021103,-0.0400853395462036
14.713809158,0.005128812789917001
14.797594153599999,-0.05812926888465878
14.881376388800001,0.0650585055351257
14.965163984400002,-0.019151359796524058
15.048948635799999,0.09305913448333736
15.132733623400004,-0.006628251075744618
15.2165184988,0.04384461641311645
15.3003007744,0.17580386400222772
15.384088604000002,0.12464894056320189
15.467872726800001,-0.07896625399589535
15.5516579608,0.13409060239791865
15.6354429782,0.11404403448104856
15.719227724000001,0.13275830149650572
15.8030117754,0.00045802593231200064
15.886797533400003,0.0332408547401428
15.9705824664,0.12591388225555417
16.054367295200002,0.04055141806602479
16.1381522278,-0.16058875024318692
16.2219371032,-0.04243501424789427
16.305720099000006,0.11475187540054317
16.3895062114,-0.025419861078262294
16.4732917582,-0.08406158685684202
16.5570767192,-0.09735556840896609
16.640858980600004,-0.11677299439907071
16.724646369200002,0.06647269129753111
16.808431315400004,-0.05255394577980042
16.89221625,0.0331836938858032
16.975998623200002,-0.06646139025688168
17.059785999000002,0.06293994188308714
17.143570919600002,0.03428236246109011
17.227355764200006,-0.10230116844177242
17.311140703200003,0.0722309350967407
17.394925499400003,0.05729964971542354
17.478710403400004,0.0234997868537903
17.5624953256,0.03424319028854368
17.646280262,-0.008969116210937522
17.730065034200003,-0.020766413211822498
17.8138499584,0.10517488718032827
17.8976318148,-0.04204273819923397
17.981419797,0.07230964899063108
18.0652045828,-0.07570482492446895
18.148989572399998,0.1253098726272583
18.2327718582,-0.0020587682723998786
18.316559409,-0.03242027759551998
18.4003441752,0.06415160894393919
18.484129133399996,0.012774038314819361
18.567914062000003,0.15476347208023072
18.6516966836,-0.041238927841186476
18.735484447799998,0.04339132308959958
18.8192670022,0.09279150962829585
18.9030548582,0.10024560689926146
18.9868386554,0.004515635967254639
19.070620343,-0.00931297540664674
19.1544083436,0.0671545028686523
19.2381932722,0.09114127159118648
19.3219805952,-0.02330185174942016
19.4057595928,0.12749676704406732
19.489547998200003,0.02657390832901
19.5733328068,0.09538162946701048
19.6571178226,-0.0011134386062622403
19.740902641399998,0.0873562097549438
19.824685470400002,0.10464515686035152
19.9084724942,0.044113183021545384
19.992254808000002,0.06449717283248897
20.0760418342,0.013330221176147461
20.1598271308,0.12305351495742793
20.243612151,0.010418713092803938
20.3273970288,0.014673674106597919
20.411181888,0.04099982976913451
20.494966761799997,-0.04789960384368892
20.5787493864,0.035519564151763924
20.6625366364,-0.01020923852920532
20.7463214322,-0.07203509807586667
20.830106391799998,0.040731680393218964
20.913891372800002,-0.038527023792266836
20.997675833600002,0.02942759990692136
21.081460695,0.044084680080413836
21.1652464858,-0.029229629039764383
21.2490310136,0.007858431339263897
21.3328129088,0.07038705348968509
21.4166000564,-0.004020392894744829
21.500386374600005,0.014863783121109028
21.5841712788,-0.0529751658439636
21.667952657000004,0.010464406013488761
21.7517404176,0.10273334980010981
21.835522792600003,-0.17133222818374633
21.919305958999995,0.12815386056900022
22.003095253799998,0.07588226795196527
22.0868808372,0.02120805978775024
22.170665033200002,-0.09422895312309262
22.2544500248,-0.11404088735580438
22.3382349146,0.009859490394592283
22.422019706800004,-0.036605191230773916
22.505807367200003,-0.12700526714324947
22.5895893152,-0.20165473222732538
22.6733739308,-0.02191305160522458
22.7571600514,-0.024342548847198456
22.8409421618,-0.20938231945037838
22.924728618,-0.2748119235038757
23.008512265,-0.12203117609024043
23.092299024,-0.07492930889129634
23.1760840176,-0.3023699820041656
23.259868978600004,-0.21263742446899414
23.3436533032,-0.15138080120086667
23.4274388014,-0.022833311557769735
23.511223805,-0.24284256696701045
23.595008708800002,-0.18791342973709102
23.6787928536,-0.21030257940292355
23.762577953,0.0058044314384460395
23.8463621392,-0.1741846919059753
23.930148361599997,-0.17432303428649895
24.0139333026,-0.1675766587257385
24.0977181694,-0.0147315263748169
24.1815031982,-0.008188509941101074
24.2652880304,-0.10298422574996946
24.349073062800002,-0.1260917425155639
24.432857901400002,-0.17835141420364378
24.5166403296,0.14660508632659908
24.600427872800005,-0.05753939151763916
24.6842128072,-0.04545234441757205
24.767997630000004,-0.0954554319381714
24.8517823852,-0.10377916097640986
24.935567482400003,-0.13170698881149293
25.0193524474,-0.012029695510864278
25.103137276200002,-0.07312567234039304
25.18692226,-0.15220559835433956
25.270707139800002,-0.12394487261772151
25.354492176,-0.08637589216232303
25.4382770168,-0.16029415726661678
25.522061794400003,-0.060286438465118386
25.605845622000004,-0.2943359434604645
25.689631928,-0.021927642822265603
25.773417709,-0.11318149566650393
25.857201895000003,-0.16039975881576535
25.940987137,-0.16937683820724483
26.0247734672,-0.10527573823928829
26.108556519600008,-0.0140217661857605
26.1923434762,-0.1283572912216186
26.276123841000004,-0.08832520246505735
26.359911441,-0.11976809501647948
26.443696656400004,-0.10616425275802606
26.5274814164,-0.1376385927200317
26.6112662166,-0.0627718925476074
26.6950512342,-0.0831872582435608
26.7788334324,-0.0958058714866638
26.862621066600003,-0.12806073427200315
26.9464059566,-0.1456045508384704
27.030192639,-0.0395533442497253
27.1139758402,-0.061259067058563176
27.197760817400003,-0.12569476366043086
27.281545712999996,-0.09897686243057251
27.3653306676,-0.08624800443649286
27.449117240200003,-0.073530101776123
27.532900591600004,-0.0523153781890869
27.616685440999998,-0.10062698125839231
27.7004704552,-0.019428718090057362
27.784255381399998,-0.034473693370819083
27.8680379886,-0.0600275039672851
27.951825193799998,-0.11576195955276483
28.0356102636,-0.11809251308441157
28.119392641799998,-0.20337318181991576
28.2031800864,0.14511482715606686
28.286965025199997,-0.13707830905914303
28.370750070000003,-0.15513969659805293
28.4545349536,-0.01306078433990478
28.538319879800003,0.0011119127273559737
28.622104843,-0.17206977605819698
28.705887281000003,-0.039221990108489965
28.7896747162,-0.0749737501144409
28.8734596748,0.1443055629730224
28.957244601600003,-0.34457414150238036
29.041029672400004,-0.06520727872848511
29.124814484800005,-0.02972914576530457
29.208599510600003,-0.1303831458091736
29.2923844228,-0.17197413444519039
29.3761694734,-0.023149418830871578
29.459954395800004,-0.028317308425903315
29.5437392472,-0.18767899274826044
29.627524281,-0.025762784481048556
29.711309246600003,0.012252998352050782
29.795091426,-0.15691134333610532
29.878876458,-0.05662468671798704
29.962664051800004,0.049107563495635956
30.046447340600004,-0.14486005902290336
30.130233905,-0.014396554231643688
30.2140189512,-0.007023876905441306
30.297803839199997,-0.14656900763511654
30.381588873600002,0.00898852348327638
30.465371567400002,-0.02761962413787843
30.5491587058,-0.1006345093250274
30.632943616,-0.04074132442474362
30.716728707000005,-0.013596916198730458
30.800513593000005,0.03153196573257446
30.8842986008,0.028570759296417204
30.968083541,-0.049868142604827866
31.051868636200005,0.019641351699829078
31.135653406200003,-0.011025094985961922
31.2194358932,-0.03410849571228026
31.303223371,-0.018767416477203362
31.387008368200004,0.05037196874618528
31.470793360000005,-0.06854903697967527
31.554578245799995,-0.013330256938934299
31.6383654268,-0.01828290224075312
31.722145883000003,0.024672985076904262
31.8059304634,-0.09723160862922665
31.889718726800005,0.0727854013442993
31.973503024400003,0.030173313617706275
32.0572855112,-0.11030890941619871
32.1410729608,0.07419912219047545
32.224857895,-0.1625423550605774
32.3086428458,0.23398004770278927
32.39242787,-0.046415820717811564
32.47621023480001,0.0807643473148346
32.5599977842,-0.12656734883785242
32.6437857356,0.07896165847778318
32.727567795599995,0.03883309960365292
32.8113525938,-0.00381357669830322
32.895138024800005,-0.02361764907836912
32.9789222392,0.06226928830146787
33.0627065672,0.19952390789985658
33.14649188840001,0.06812745332717889
33.230278247200005,-0.10912735164165496
33.314062494,0.1310828626155853
33.3978475524,0.07885072827339165
33.481630629799994,0.14787547588348382
33.565418607599995,-0.13017967939376823
33.64920241520001,0.1541231632232666
33.73298743080001,0.10287539958953855
33.816769692600005,0.21262806057929992
33.9005573596,-0.08103657662868494
33.984342304200005,0.02388739585876466
34.0681273626,0.15569888949394223
34.1519122116,0.15646872520446772
34.2356972336,0.05167860984802244
34.319482223,-0.09314635097980493
34.4032673122,0.059704256057739234
34.4870521288,0.2315942525863647
34.5708371188,-0.047509625554084736
34.6546207854,0.050200879573822
34.7384070692,0.12039315700531002
34.8221920192,0.12454225420951837
34.9059769684,0.16069476604461663
34.989761844200004,-0.0447571575641632
35.073547031,0.14815599322319029
35.1573335928,0.1898338377475738
35.241116401599996,0.14766017794609065
35.324901322,0.0822143733501434
35.40868750360001,0.09171538352966303
35.492470814600004,0.1943613648414612
35.5762568396,0.1391554653644561
35.66003917020001,0.09231916069984433
35.7438242674,0.059859555959701494
35.8276117428,0.1877115666866302
35.911396818,0.15628754496574399
35.995181819600006,0.16111415028572074
36.0789668114,0.006939846277236939
36.1627516726,0.08788974285125728
36.246534665800006,0.24479815959930415
36.3303217046,0.12497846484184261
36.4141067242,0.14679672718048092
36.497891653,0.011553996801376323
36.5816740668,0.13048856854438778
36.66546163300001,0.16237555146217342
36.74924669240001,0.06496120691299437
36.83303158220001,0.0853125035762787
36.916813983800004,0.08154979944229124
37.00060161220001,0.0822797954082489
37.0843866646,0.10835034251213069
37.1681713978,0.11119648218154903
37.2519565726,0.1540794730186462
37.3357437972,0.07562114000320433
37.41952660220001,0.09584295749664301
37.503311498,0.12316935658454889
37.5870938506,0.1462954461574554
37.67088154,0.026574450731277476
37.7546665112,0.13053763508796687
37.838448896600006,0.010666418075561521
37.922236478,0.11815335154533382
38.0060215164,0.20291519165039057
38.08980651419999,0.03208059072494502
38.1735914526,0.0062966585159301616
38.257376529400005,0.11185777187347405
38.3411614332,0.13093496561050413
38.424946724200005,0.14259957075119015
38.5087268974,-0.027509647607803316
38.5925163204,0.09983147382736202
38.6763015152,0.14727823734283443
38.7600865922,0.03443230390548702
38.843867915400004,0.044040840864181516
38.927656462,-0.028141808509826616
39.0114414412,0.18435597419738764
39.0952265156,0.057586443424224795
39.179011397400004,0.022205114364624044
39.2627964176,0.00667952299118042
39.346581614399994,0.09133514165878293
39.4303665162,0.006286370754241942
39.5141513352,-0.00782086849212646
39.5979364322,-0.020559525489807103
39.6817214936,0.1041315674781799
39.7655049218,0.031367969512939436
39.84929141320001,0.11852649450302122
39.9330765162,-0.19526459276676178
40.0168614226,-0.20296483337879176
40.1006464444,0.20834109187126154
40.184431432000004,0.08843225836753844
40.268214087800004,-0.04928838312625882
40.352001529,-0.172182884812355
40.43578657100001,0.06143698096275326
40.5195714306,0.029852145910263084
40.603356505600004,0.17289112806320184
40.687141513200004,-0.17538189291954037
40.7709266068,0.04755007028579706
40.85471155140001,0.014191997051239042
40.938496547,-0.01209043264389038
41.02228160520001,-0.0734228372573852
41.10606584600001,0.025574398040771457
41.1898515826,0.04432811737060542
41.273636622800005,0.12795836925506593
41.3574216,-0.1492349863052368
41.441206746199995,0.006714212894439679
41.5249916302,-0.025488066673278797
41.608775413000004,0.008543491363525424
41.6925622578,0.012412095069885259
41.776347994000005,0.06908475160598752
41.8601301492,-0.01936405301094054
41.943916785000006,0.0091731071472168
42.027701731600004,0.14404468536376946
42.111486766,-0.06672105789184565
42.1952716818,0.0608709096908569
42.279056732600004,0.0923541903495788
42.362841893,-0.021148514747619643
42.446626972000004,0.13369396924972526
42.5304111194,-0.012005841732025162
42.614197142,0.05047022104263308
42.69798212960001,0.15814404487609862
42.781766891000004,-0.0092081904411316
42.86554905300001,0.03291658759117126
42.949336441,0.07514843940734858
43.033121902400005,0.05544904470443725
43.1169070482,0.08360892534255977
43.200691979,0.061249494552612284
43.2844743602,-0.008053666353225696
43.36826215320001,0.11216068267822261
43.4520471976,0.11242989301681514
43.5358320588,-0.0728902280330658
43.6196171482,0.09031779766082759
43.703401580000005,0.017956858873367332
43.787188453599995,0.14441039562225338
43.8709721368,0.13460537195205685
43.9547572466,-0.012470507621765138
44.038542148400005,0.09039410352706904
44.12232753240001,0.06143667101860042
44.206109716200004,0.03151581287384035
44.2898974202,0.06609838008880614
44.37368235460001,-0.11080218553543089
44.45746745000001,0.155983281135559
44.54125232380001,0.09874402284622194
44.625037424599995,0.001993328332900979
44.708817116199995,0.08736715316772459
44.792607558200004,-0.12192581892013543
44.8763924728,0.17649896144866942
44.960177576,-0.060490471124649
45.043962582000006,0.01439697742462156
45.1277450566,-0.0102410078048706
45.2115326542,0.07706758975982661
45.2953177452,0.08705682754516596
45.3791027002,-0.019162708520889277
45.4628847238,-0.009019434452056817
45.546672768600004,-0.09391995668411253
45.6304578378,0.09076557755470269
45.714244038000004,-0.027823400497436517
45.7980279856,0.10104755759239192
45.8818129488,0.03706656098365785
45.9655993542,-0.0915513157844543
46.049383017000004,0.04095825552940366
46.133168100000006,0.34266396760940554
46.2169504404,-0.2843890070915222
46.300738179,0.13464143872261045
46.3845231622,0.5010089874267577
46.46830211360001,0.11975326538085937
46.5520932162,-0.7514495074748992
46.6358782932,0.5667825698852538
46.71966336839999,0.7381929636001586
46.803448481800004,-0.4210793495178223
46.88723342440001,-0.03294564485549922
46.9710184874,0.46738473176956175
47.0548056132,0.007656767964363093
47.138588531,0.03721589446067812
47.22237001720001,0.1895586669445037
47.3061586568,0.11229722499847408
47.389943618000004,0.024828630685806256
47.4737287434,0.2633318603038787
47.55751157440001,0.2830064117908478
47.6412987712,-0.5448307991027832
47.7250838766,0.4119996726512909
47.8088678102,0.05012331306934357
47.892653835400004,0.11560455560684205
47.9764390362,-0.24860399961471552
48.0602240954,-0.016740918159484818
48.144009276,0.027577155828475926
48.227794121,0.189789742231369
48.3115766182,-0.3031291246414184
48.3953616804,-0.24168825745582576
48.4791493578,0.28356913328170774
48.562934284200004,-0.2911596417427063
48.646719422400004,0.03534505367279052
48.730504493,0.07186655998229978
48.81428757620001,-0.14821591973304749
48.89807453920001,-0.03825129270553586
48.981859579600005,0.20251796245574946
49.065644768199995,-0.11137686967849725
49.14942983320001,-0.2121867179870605
49.2332147898,-0.0781773030757904
49.3169998346,-0.16345896124839776
49.4007848812,0.08613923788070676
49.484569917,-0.0447554588317871
49.5683548886,-0.28077307939529417
49.6521400262,-0.08128699064254759
49.7359247552,-0.03352453708648682
49.8197102128,-0.0313369154930115
49.903492807400006,-0.20467032194137574
49.9872802486,-0.043422198295593274
50.0710653382,-0.02946652173995971
50.1548504212,-0.12936514616012568
50.2386355202,-0.15904840826988217
50.3224204834,-0.14575232863426202
50.406205650000004,-0.06032804250717162
50.489990688400006,-0.037895274162292464
50.5737761052,-0.21316483020782467
50.65756083240001,-0.09645442962646482
50.7413458766,-0.06110330820083616
50.825130975600004,0.0923078894615173
50.90891333220001,-0.2678591191768646
50.9927009604,-0.041728019714355455
51.076488532,0.036471033096313464
51.160271255400005,-0.11045886278152461
51.244056187599995,-0.13358201980590817
51.327841279,-0.043867683410644495
51.4116263968,-0.3291573643684387
51.4954088854,0.08804490566253657
51.57919580800001,0.08673757314682008
51.6629816394,-0.05194560885429382
51.74676670040001,-0.06430828571319573
51.830551755200005,-0.18277584910392755
51.914336687399995,-0.004321694374084475
51.9981218216,-0.06768335103988646
52.0819098484,-0.07899460792541504
52.1656915398,0.05658389329910276
52.2494774714,0.11462701559066771
52.333262360800006,0.02349474430084232
52.41704496220001,-0.019756102561950657
52.5008297544,-0.11942918300628662
52.58461719980001,-0.09323526620864861
52.668402524800015,0.0372974932193756
52.7521874914,-0.03110411167144774
52.8359726762,-0.09464697837829586
52.9197576476,-0.09653437137603757
53.003542755,0.1284501791000366
53.087327339800005,-0.014586722850799516
53.1711135076,-0.11629300117492676
53.25489794719999,-0.15316963195800778
53.3386830628,0.017498588562011717
53.42246934800001,-0.10635442733764647
53.506251332800005,-0.1411390423774719
53.590038253399996,-0.14058796167373655
53.673823393199996,-0.0847187757492065
53.757605829400006,-0.08850756287574767
53.841393627,-0.1483156204223632
53.9251754054,-0.16086961627006527
54.008961088599996,-0.009126496315002421
54.092749133999995,-0.17024926543235774
54.176533732799996,-0.1574198603630065
54.2603188506,-0.14780490994453427
54.34410397640001,-0.07214084863662716
54.427888213,0.02764720320701599
54.5116742058,0.12019865512847902
54.5954592132,-0.38795237541198724
54.6792391552,-0.1852972090244293
54.763027039600004,-0.13420840501785275
54.8468145864,0.07721062898635858
54.93059943979999,-0.06857715845108031
55.014384678,-0.10173766613006592
55.0981697852,-0.37530080080032346
55.1819548478,-0.14678035378456117
55.265739963200005,-0.1431937038898468
55.3495252886,0.1405465722084045
55.43330886400001,-0.09264692068099968
55.5170952554,-0.26759934425354
55.60088028560001,0.04997010231018062
55.6846656006,-0.06722269058227534
55.768450488400006,-0.11279177665710446
55.85223559560001,0.2878873586654663
55.9360206274,-0.30451754331588743
56.01980875860001,-0.22498233318328853
56.10359091800001,0.16110579967498775
56.187376042000004,-0.023240220546722416
56.2711610844,-0.053565859794616644
56.3549462022,-0.04199614524841306
56.43873134179999,0.0885810852050781
56.52251690300001,0.2115990042686462
56.606301544400004,-0.08059704303741452
56.69008660760001,0.13119957447052003
56.7738716562,0.31134605407714844
56.857656812,0.19236617088317867
56.94144399700001,0.28757436275482173
57.0252269662,0.2189522266387939
57.1090133268,0.11481249332427974
57.19279731740001,0.2523139834403991
57.27657968200001,0.14210367202758784
57.360367451,0.10706633329391475
57.4441525402,0.1662219285964965
57.52793926300001,0.36089794635772704
57.6117227614,0.18033733367919919
57.6955078888,0.18324946165084835
57.779290333199995,0.08168904781341549
57.863077349,0.23857060670852656
57.946863124000004,0.1598470091819763
58.03064825800001,0.0868154883384704
58.11443341419999,0.08826776742935176
58.198218599200004,0.15662208795547478
58.2820035416,0.2197110295295715
58.3657887834,0.1372402191162109
58.44957390340001,-0.0520062923431396
58.53335638860001,0.027227187156677258
58.61714405900001,0.18106968402862544
58.7009291504,0.17496292591094967
58.7847143206,-0.0021384239196777385
58.868495868000004,-0.07830524444580075
58.9522843952,0.1639479160308837
59.03606962900001,0.1429052114486694
59.1198547426,0.07407755851745598
59.203639233800004,-0.0201390981674194
59.2874222866,0.059586048126220634
59.3712100694,0.09307501316070552
59.454994541999994,-0.01124861240386962
59.5387777266,0.03362019062042234
59.6225666836,0.01187734603881832
59.70635057220001,0.04998617172241204
59.79013570420001,0.06905806064605707
59.873921397800004,0.020982956886291478
59.957705925000006,0.03465073108673094
60.04149104740001,0.0970347881317138
60.12527625240001,0.08940792083740232
60.2090588348,0.15307779312133785
60.2928464326,0.06440925598144528
60.3766316296,0.12375249862670892
60.4604167552,0.13811099529266352
60.5442018998,0.16384437084197995
60.62798437660001,0.18283777236938473
60.711772094000004,0.1430767774581909
60.79555727660001,0.11291017532348628
60.879342425000004,0.14149019718170158
60.96312482840001,0.09225151538848868
61.04691260940001,0.12279963493347161
61.1306977844,0.12084121704101554
61.2144830198,0.05931477546691891
61.29826541500002,0.11095781326293944
61.382053201999994,0.06723272800445551
61.4658383338,0.0820906400680542
61.5496234964,0.00211541652679442
61.63340523280001,0.09514758586883543
61.7171943238,0.12159664630889888
61.800978811200004,0.016241490840911844
61.884764060600006,-0.03340749740600584
61.968549112800005,0.008787941932678178
62.0523343018,0.16525509357452386
62.136119445999995,0.044057822227478005
62.2199045866,0.0003573417663574191
62.303689358,0.023692798614501943
62.38747517140001,0.09964647293090814
62.4712573658,0.04307396411895752
62.5550451972,-0.10668317079544062
62.63883027639999,0.06325805187225342
62.7226108448,0.17854921817779534
62.806400692800004,-0.02006703615188598
62.890181330400004,0.01209878921508786
62.973970763,0.047529101371765116
63.05775573840001,0.055380058288574216
63.1415412918,0.11957583427429194
63.22532743000001,0.004194974899292002
63.309111457200004,-0.04591300487518306
63.392896666400006,0.12096209526062007
63.47667943020001,0.11059756278991695
63.5604671526,0.0068405747413635195
63.644252040200016,0.04428892135620116
63.7280372572,-0.020716333389282197
63.811822419600006,0.03655743598937988
63.89560763300001,0.09861912727355952
63.9793926712,0.03317294120788572
64.0631778402,-0.11495932340621946
64.14696036960001,0.10138976573944089
64.2307482704,0.1272913217544555
64.31453328059999,-0.15931392908096312
64.39831843240002,-0.023816394805908202
64.4821037088,-0.03406599760055542
64.5658888266,0.04547080993652345
64.6496738526,-0.15659703016281126
64.73345914720001,-0.009999799728393547
64.8172443076,-0.028610324859619136
64.9010295392,0.030765986442565885
64.9848170132,-0.19412566423416133
65.06859991479999,-0.002859592437744124
65.15238467859999,0.07177557945251464
65.23617030080001,-0.11427416801452632
65.31995523360001,-0.05185313224792476
65.40374058720002,-0.0023552417755126993
65.48752572120002,-0.11225193738937378
65.57131088359999,-0.23531324863433833
65.65509598439999,-0.0956783533096313
65.7388812794,-0.04015352725982663
65.8226637866,-0.19326232671737667
65.9064525216,-0.19948220252990717
65.9902366752,0.013252902030944818
66.0740210216,-0.09617087841033929
66.1578071282,-0.1732177376747131
66.2415923902,-0.32202320098876946
66.325377392,0.03023712635040282
66.40915993380001,0.025151371955871582
66.492947784,-0.22602239847183223
66.5767330154,-0.17151451110839838
66.6605181372,-0.07170610427856441
66.74430334019999,-0.01518373489379882
66.8280861488,-0.04979219436645508
66.9118738158,-0.30326694250106806
66.9956588032,-0.16840221881866452
67.0794397846,-0.041322934627532934
67.1632292986,-0.004383325576782241
67.2470145956,-0.16164257526397702
67.33079706020001,-0.21589678525924683
67.4145848002,0.001555943489074679
67.4983683092,-0.07589656114578242
67.58215531020001,-0.032962274551391536
67.6659403894,-0.25018621683120723
67.74972556579999,-0.14414800405502315
67.8335109356,0.11233894824981686
67.9172960882,-0.1405298829078674
68.00108116140001,-0.13648394346237178
68.08486646960002,-0.06692461967468258
68.1686542932,-0.03177618980407712
68.25243683139999,-0.026724362373352028
68.3362219366,0.03561484813690182
68.4200071582,-0.04929730892181392
68.5037924182,0.0463989496231079
68.58757768020001,-0.010257112979888922
68.671362731,-0.12596433162689208
68.75514806620001,0.05885736942291252
68.8389332854,-0.00028421878814695876
68.9227158562,-0.04660987854003902
69.006503533,-0.07210315465927117
69.09028883800002,0.037458777427673326
69.17407386660001,-0.016083049774169918
69.2578592664,-0.029348230361938475
69.3416444374,-0.14648118019103998
69.425430269,0.01660284996032712
69.50921488,0.03168337345123292
69.59300013560001,-0.0025346994400024395
69.67678767459999,-0.0350628137588501
69.7605705242,-0.07991621494293213
69.84435574140001,0.03456604480743408
69.928138442,-0.09522294998168945
70.01192376880002,0.0013352394104003962
70.09571136260001,0.09634721279144284
70.179496474,0.1915986061096191
70.26328198440001,0.15129549503326412
70.3470669618,-0.050870430469512916
70.4308522542,0.017103171348571762
70.5146383384,0.1226690769195556
70.5984221338,0.08669333457946775
70.68220848,-0.03315587043762206
70.765993079,0.13940184116363522
70.84977835980001,0.099804675579071
70.9335627772,-0.03030980825424192
71.01734879860001,0.13300762176513667
71.1011321158,0.2271457195281982
71.18491923920001,-0.07866119146347042
71.26870450880001,0.08208436965942381
71.35248966980001,0.09851267337799066
71.4362747,0.026696670055389383
71.5200591196,0.05921351909637447
71.60384283160002,0.039745557308196976
71.687630541,-0.0681033849716186
71.771416249,0.10735176801681515
71.85520160040001,0.1489656925201416
71.93898579840001,0.020062720775604264
72.0227714388,0.02772725820541382
72.10655674160002,0.16215628385543818
72.1903419712,-0.0013188242912292405
72.2741272396,0.14914669990539545
72.3579124384,-0.03299607038497924
72.44169511679999,-0.05019308328628538
72.52547933880001,0.07229681015014648
72.6092678178,0.18587085008621212
72.693053426,-0.07869400978088374
72.77683869820001,-0.09679399728775019
72.860623997,0.03818340301513668
72.94440667519999,0.01405656337738036
73.02819446459999,0.14771987199783324
73.111979649,-0.17769061326980587
73.1957648476,-0.0012760162353515404
73.27954824640001,0.038531422615051214
73.363335366,0.055775773525238014
73.4471179792,0.10137742757797241
73.530905927,-0.2051607251167297
73.61468867020001,0.05029408931732178
73.69847437180002,0.12696197032928463
73.7822620936,-0.132541275024414
73.86604696500001,-0.11293141841888425
73.94983224979998,0.0790555715560913
74.03361729000001,-0.19686951637268063
74.11740266400001,0.14455066919326778
74.20118787940001,-0.038012897968292256
74.28497055579999,-0.304833722114563
74.368758338,0.21351373195648188
74.4525436412,-0.1012184619903564
74.5363289298,-0.033497893810272225
74.6201142164,-0.11406192779541009
74.7038994212,-0.31955593824386597
74.7876846876,-0.12834730148315426
74.87146988680001,-0.09084404706954954
74.95525744980002,-0.22458517551422114
75.0390404858,-0.14355533123016354
75.12282570519999,-0.18138921260833735
75.20661106100002,-0.2584629893302917
75.29039622600001,0.014553606510162381
75.374180456,0.046058750152587855
75.4579668332,-0.08019838333129875
75.5685613616,-0.05295428037643431
75.69256651740001,0.03542073965072632
75.77635086000001,0.04296827316284181
75.8601361532,-0.053853309154510455
75.9439214882,-0.10164089202880855
76.0277046832,0.11210696697235101
76.1114919372,-0.26311707496643066
76.1952772418,0.11370240449905393
76.2790624714,0.14771535396575927
76.3628452412,-0.2652146697044372
76.44663295880001,-0.03394542932510373
76.53041524860001,0.08251893520355222
76.6142028956,0.07111526727676387
76.6979895326,-0.13523374795913692
76.78177268900001,-0.08674058914184565
76.8655593996,-0.11678531169891353
76.94934469040001,0.21700582504272456
77.0331275148,0.07863852977752685
77.11691516760001,-0.2651585936546325
77.2007005052,-0.15702050924301142
77.28448582000001,0.0584889531135559
77.36827114100001,0.17783582210540766
77.4520529668,-0.1626819849014282
77.535839116,-0.2667942523956298
77.61962703520001,-0.13905632495880127
77.7034109488,0.2260320663452148
77.7871975086,0.1262458205223084
77.8709828546,-0.38654905557632446
77.954768454,-0.12821063995361323
78.0385516208,-0.17705730199813838
78.12233610140001,0.3118139266967773
78.2061233978,0.013637280464172364
78.289909987,-0.30692507028579713
78.37369465260001,-0.1256884932518005
78.45747891780002,0.19604904651641838
78.5412661374,0.055775296688079824
78.6250505754,-0.2619298577308654
78.70883332680002,-0.38526877760887146
78.79262074760001,0.13617658615112302
78.8764029212,0.3151601195335388
78.96019168900001,-0.12781776189804078
79.043975293,-0.38386871814727785
79.1277620768,-0.10199712514877315
79.2115475832,0.4287921547889709
79.2953328306,-0.017384028434753403
79.37911388760001,-0.30464830398559567
79.46290076919999,-0.3575891852378845
79.5466887556,0.38980908393859853
79.63047405660001,0.11273690462112425
79.7142594428,-0.012919592857360879
79.79804460880001,-0.36697272062301634
79.908638718,0.039486193656921374
80.0326435406,0.17942080497741694
80.1164289552,-0.15893055200576775
80.2002141138,-0.10945415496826169
80.28399951420002,0.13746682405471797
80.36778484940001,-0.08495810031890866
80.45157016060001,-0.06354027986526486
80.53535540600001,-0.20065051317214966
80.61914077000002,-0.13177402019500728
80.7029260608,0.11993581056594846
80.786708808,-0.23813515901565546
80.87049671720001,-0.15150818824768064
80.95428199339999,0.12117512226104732
81.0380646492,0.22054028511047363
81.1218527844,-0.2028293132781982
81.2056381782,-0.07875850200653076
81.2894206006,-0.047156906127929665
81.3732086072,-0.08488615751266479
81.4569939282,0.04684965610504151
81.5407775834,-0.27995711565017695
81.6245644666,0.12206611633300779
81.708349914,-0.09740304946899411
81.79213519620001,-0.33755037784576414
81.8759181532,-0.1623951196670532
81.95970582620002,0.02964800596237182
82.0434911696,-0.18558604717254634
82.12727658040001,-0.10735150575637813
82.2110617122,0.0003368377685546986
82.294847178,-0.22742131948471064
82.37863247840001,0.25284798145294185
82.4624178444,-0.17622413635253903
82.546203121,-0.14246137142181398
82.6299884968,-0.00010246038436890204
82.71377380999999,-0.3680195212364197
82.79755919200002,0.0805070638656616
82.88134361600001,0.11378693580627437
82.9651298262,0.0387748122215271
83.0489151898,-0.16273038387298583
83.1326979682,0.005343556404113779
83.21648576480001,0.07995213270187378
83.30027111460001,0.21099267005920405
83.3840543766,-0.07886444330215456
83.46784147780001,-0.3816043257713318
83.55162711300001,0.1301027417182922
83.63541280780001,0.19529432058334345
83.7191979096,-0.10678976774215694
83.8029831756,-0.14042623043060293
83.8867684132,-0.21524065732955927
83.9705540008,0.15340096950531007
84.0543390392,0.18260509967803945
84.13812457400002,-0.1668235778808593
84.2219098238,-0.3228806257247924
84.3056951894,-0.044561254978179934
84.389480531,-0.06105471849441528
84.4732659296,-0.023109042644500737
84.557048506,-0.13517260551452634
84.64083590860001,-0.450749945640564
84.72462259879998,0.1946770191192627
84.80840591820001,0.21996247768402094
84.89219269179999,-0.23950651288032526
84.97597558940001,-0.33449716567993165
85.05976342120002,-0.021069085597991942
85.1435487506,0.34391622543334954
85.2273340146,0.07373690605163576
85.3111193602,-0.24070553183555604
85.39490477680002,-0.03031803369522096
85.478690161,0.28886106014251706
85.5624725544,0.0895244002342224
85.64626083980001,0.23615529537200927
85.730046208,0.15406512618064885
85.81383159,-0.41376373767852775
85.8976169556,0.19316262006759638
85.9814022608,0.45468499660491946
86.06518761240001,-0.020380532741546643
86.1489730964,0.3322217345237731
86.2327582588,-0.05590231418609619
86.31654381339999,0.16282436847686768
86.40032904080002,0.3282157421112061
86.4841143888,0.009437346458435034
86.56789969360001,0.014381241798400876
86.6516825798,0.09582073688507076
86.7354705288,0.26215039491653436
86.819255836,0.08669943809509276
86.903041218,-0.1814120888710022
86.9868270252,-0.01701008081436154
87.07061331079998,0.33048967123031614
87.1543974034,-0.0679556608200073
87.238182631,-0.22022228837013244
87.3219681006,0.025706374645233142
87.40575183640001,0.1227583289146423
87.48953588180001,0.008058571815490741
87.5733247326,-0.13770893812179558
87.65710960240001,-0.10311981439590452
87.7408923336,0.2357611894607543
87.8246804848,0.15089586973190308
87.9084656982,-0.39219139218330384
87.9922510392,-0.0474075436592102
88.076035638,0.15654180049896235
88.15982194040001,0.005657935142517062
88.2436072652,-0.03431267738342279
88.32739257220001,-0.07812831401824946
88.4111779606,0.018618273735046337
88.4949634442,-0.12279392480850215
88.57874870420001,0.14577878713607784
88.66253402919999,-0.14418700933456413
88.7463194704,0.2215479016304016
88.83010485680002,-0.22616217136383057
88.9138901314,-0.17421314716339106
88.9976755706,0.20197713375091553
89.0814609892,0.19655137062072753
89.165246377,-0.13991330862045287
89.249031637,-0.00464496612548828
89.3328149316,-0.08963766098022459
89.4166024744,0.2044475555419921
89.5003853872,-0.020555555820465077
89.58417045819999,0.07666912078857417
89.66795885340001,-0.04650242328643796
89.7517440894,0.12649815082550045
89.8355295906,0.07774785757064814
89.91931227120001,-0.17092043161392206
90.00310029239999,0.004402804374694824
90.0868856868,0.1250685095787048
90.1706711016,-0.10842689275741571
90.25445639200001,-0.06623923778533936
90.33824182279999,-0.19960154294967647
90.42202492020002,0.02088334560394286
90.50581130320002,0.13737044334411616
90.58959805060002,-0.22659897804260254
90.67338339200002,-0.07527995109558104
90.7571689248,-0.196142566204071
90.8409542826,0.03425840139389038
90.9247395304,0.07829960584640504
91.00852478419999,-0.2745214343070984
91.09230775520001,-0.010075342655181879
91.17609586820001,-0.2125406742095947
91.25988124620001,0.18093057870864865
91.34366399740001,0.25385203361511227
91.427451982,-0.41099627614021295
91.5112373844,-0.22551320791244503
91.5950221538,-0.014613664150238024
91.67880821380001,0.31059080362319935
91.76259095460001,0.1388702869415283
91.84637908580001,-0.4017030417919158
91.9301643684,-0.37160050868988026
92.013949858,0.35291159152984614
92.097737747,0.3486196041107178
92.18152077759999,-0.38602982759475707
92.26530602919999,-0.24841247200965877
92.34909147840001,0.14051764011383053
92.4328769478,0.48934661149978637
92.5166623992,0.03284672498703004
92.60044765720001,-0.40764607191085817
92.68423103759999,0.09151999950408937
92.76801711139998,0.4835050106048584
92.85180402360001,0.07732703685760493
92.9355893708,-0.2683622717857361
93.01937488120001,0.05371904373168945
93.1031601534,0.2599594950675964
93.18694573079999,0.2928425312042236
93.27073111760001,-0.33484132289886476
93.3545164404,0.15382925271987916
93.43830192240002,0.4424405097961426
93.52208694820001,-0.17638332843780513
93.60586584020001,-0.1510868072509765
93.6896581866,-0.042151522636413585
93.7734436378,0.36659046411514284
93.85722830400002,0.07536611557006836
93.9410144004,-0.41969363689422606
94.02480113120001,-0.17503566741943355
94.1085852034,0.16571975946426393
94.1923707802,0.3415597796440124
94.2761534426,-0.22125393748283387
94.35994158960001,-0.2855396091938019
94.44372502860001,0.048436021804809576
94.5275118208,0.2954975128173828
94.61129788260001,-0.1321656346321106
94.69508395660002,-0.11867773532867425
94.7788686386,-0.17804754972457879
94.86265391700002,0.23432945013046264
94.946440048,-0.07694444656372071
95.0302250596,-0.18402624130249018
95.11401048260001,-0.19153513908386227
95.19779596660001,0.0547824501991272
95.281579475,0.02270786762237547
95.36536684040001,-0.2289038777351379
95.44915222260002,0.12542400360107414
95.5329377206,-0.19295057058334347
95.616723522,-0.07124314308166502
95.7005086396,0.020185387134551973
95.7842889378,0.1451965808868408
95.86807935300001,-0.031318390369415236
95.95186479060001,-0.22519549727439872
96.0356479566,-0.27190862298011775
96.1194357132,0.1462247848510742
96.2032212114,0.2694865107536316
96.28700654680001,-0.11630343198776241
96.37079207960001,-0.23235813379287715
96.4545774942,-0.04471648931503294
96.5383629634,0.26454102993011464
96.6221483744,0.09394688606262203
96.705931205,-0.11381785869598389
96.7897192912,-0.35230586528778074
96.8735041834,0.26057031154632565
96.95729084439999,0.2543425917625427
97.04107567579999,-0.18100430965423578
97.12486109459999,-0.16526099443435666
97.2086466492,-0.11082037687301634
97.29242974659999,0.013795816898345942
97.3762174726,0.14420346021652222
97.46000284459998,-0.23629684448242183
97.5437884424,-0.11098794937133785
97.62757389779999,-0.0757229685783386
97.7113598884,0.20015161037445064
97.79514474959998,0.03423613309860231
97.87893245320001,-0.0018998861312866417
97.9627163824,-0.18624987602233883
98.0465018012,-0.08167732954025268
98.13028465500001,0.39423394203186024
98.2140720938,-0.037505495548248266
98.29785745400001,0.09081370830535888
98.38164292960002,-0.00801820755004884
98.465431377,0.09763209819793695
98.5492139092,0.3684554219245911
98.6329992444,-0.10724779367446895
98.71678475879999,-0.0033353090286254773
98.8005711016,0.2107194066047668
98.8843557144,0.09436111450195309
98.9681387058,0.1290960669517517
99.0519266294,0.0437802314758301
99.1357121044,0.28966121673583983
99.21949524700001,-0.055012792348861694
99.3032829242,0.203897213935852
99.38706851979998,-0.09303231239318845
99.47085397740003,0.2529478192329407
99.55463504240001,0.1805792808532714
99.63842248540001,-0.12026484012603755
99.72221050200001,0.17008317708969115
99.8059982788,0.09918558597564699
99.8897814108,0.11535785198211668
99.9735668518,0.070097005367279
100.05735232999999,-0.11359152793884271
100.14113785060002,0.16596107482910155
100.22492339520002,-0.014030170440673822
100.3087074122,-0.05380004644393921
100.39249423880001,-0.08188894987106324
100.47628043879999,0.022017681598663345
100.56006527420001,0.015445542335510282
100.643850733,-0.06864608526229857
100.727636168,-0.18906148672103879
100.8114216442,-0.03465657234191894
100.89520716439999,0.10175329446792598
100.9789924996,-0.05777672529220586
101.0627780568,-0.05376038551330562
101.14656354479999,-0.16973922252655024
101.2303511956,0.14595850706100458
101.31413446600001,-0.10233929157257075
101.3979199578,-0.023152494430542025
101.4817054256,0.008593761920928939
101.5654910166,0.16253015995025627
101.64927634860001,0.08101881742477415
101.73305853439999,-0.16229735612869262
101.816847434,-0.16364387273788447
101.9006305682,0.20074865818023682
101.98441833659999,0.349791431427002
102.0682039262,-0.28386806249618524
102.1519843544,-0.08916661739349362
102.23577497919999,0.06985683441162106
102.3195604128,0.06959964036941524
102.4033459148,0.01895415782928466
102.48713139459998,0.0942141532897949
102.57091697419999,-0.22901968955993648
102.65470239480001,0.033407127857208216
102.738487891,0.10949447154998779
102.82227341100001,0.08201835155487056
102.906056472,-0.19748814105987544
102.9898417136,-0.0775120973587036
103.07362744379998,0.1538456559181213
103.15741534859998,-0.0153892993927002
103.24120088779998,0.03633772134780883
103.32498628200001,-0.2316981434822082
103.4087692916,0.12816970348358153
103.4925546962,0.2718747615814209
103.57634280459999,-0.10261334180831908
103.6601283702,-0.3429856359958648
103.74391389440002,-0.04277588129043577
103.827697659,0.25493321418762205
103.9114849418,-0.015817546844482406
103.99527028499999,-0.05437899827957151
104.0790558662,-0.5119149982929229
104.1628425548,0.1891206264495849
104.2466242766,0.3128287196159363
104.33041232240001,-0.31267604231834406
104.414197965,-0.17346414327621457
104.497983817,-0.1574753880500793
104.58176905079999,0.23402931690216056
104.6655545404,0.1509676337242126
104.749339988,-0.3072067618370056
104.83312529279999,-0.15563523769378657
104.91691131760001,0.05590045452117918
105.0006964558,-0.10486389398574825
105.08448201679998,-0.19771466255187986
105.16826756599998,0.026494753360748274
105.25205309820001,-0.4354022264480591
105.33583589260002,0.2881182551383972
105.4196241232,-0.055205035209655716
105.50340950939999,-0.23889406919479367
105.587195215,-0.0746040940284729
105.6709780076,-0.09557331800460814
105.75476250880001,0.11434946060180658
105.8385516928,-0.010223543643951425
105.9223348088,-0.3628334701061249
106.0061227012,-0.40633678436279297
106.0899082382,0.3152805805206299
106.17369373839999,-9.535551071167548e-05
106.2574793382,-0.14875917434692382
106.34126478559999,-0.23221230506896967
106.4250502572,-0.3018976747989654
106.5088409146,0.18468883037567133
106.5926215058,0.0871511459350586
106.676406847,-0.19963961839675898
106.760192461,-0.2687724530696869
106.84397586179998,0.12422508001327512
106.92776359780001,0.014791870117187519
107.0115490206,0.15463628768920895
107.09533742160002,-0.3560164391994476
107.1791200634,-0.38289306759834285
107.26290576080001,0.5482734560966491
107.3466911184,0.23166441917419428
107.43047663759998,-0.2897706508636474
107.5142645016,-0.19423532485961914
107.59804797739999,-0.12105543613433833
107.6818314998,0.33849962949752804
107.7656188452,0.011329233646392833
107.8494058082,-0.4199972331523895
107.93318996360001,-0.004494094848632768
108.01697545940002,0.1412211179733276
108.1007610312,-0.11497833728790277
108.1845465574,-0.008634245395660402
108.2683321862,-0.21104332208633422
108.35211749480001,0.1047082901000976
108.43590313500002,0.045864140987396176
108.51968623080002,-0.23732633590698238
108.603473678,-0.18243767023086543
108.6872603926,0.09533774852752687
108.77104530059998,-0.009937369823455828
108.85483084180001,-0.4077897608280182
108.93861646759999,0.08255439996719353
109.02240194999999,-0.3492606222629546
109.10618751099999,-0.0035938858985900936
109.1899704292,0.08448842763900757
109.27375864519999,-0.38127503395080564
109.3575442108,-0.19889109134674068
109.4413297822,-0.15846711397171015
109.52511102599999,-0.017330503463745105
109.60889835540002,-0.1499606370925903
109.6926863274,-0.32327585220336913
109.77647003480001,-0.11943020820617674
109.86025720360001,0.0549059987068176
109.94404050220001,-0.17216746807098388
110.02782805320001,-0.38689154386520386
110.11161475579999,-0.15079630613327022
110.1953997592,0.3173203587532043
110.27918536520001,-0.14331097602844234
110.36297083059999,-0.45555849075317384
110.4467564286,-0.3569187939167022
110.530541933,0.04215035438537596
110.614327598,0.0798869967460632
110.6981106058,-0.2609619617462157
110.78189863899999,-0.5991666436195373
110.8656841794,-0.1288259625434875
110.94946984660001,-0.02647609710693354
111.03325267720001,-0.1359318614006042
111.11703773619999,-0.2881427884101867
111.20082699219999,-0.3974123001098633
111.28461206879999,-0.2958151578903198
111.3683968448,0.041717755794525115
111.4521830852,-0.09819228649139404
111.53596884179998,-0.40941765904426575
111.619751758,-0.3199819564819336
111.70353829599999,-0.18793162107467648
111.7873255072,0.09801702499389643
111.8711110788,-0.33450412750244135
111.95489666839998,-0.16764930486679072
112.03868213380001,-0.3223557651042938
112.12246618920001,-0.16540145874023435
112.20625335979999,-0.012970447540283198
112.29003895179999,-0.28427027463912957
112.373824472,-0.1290226340293884
112.457610058,-0.07705563902854919
112.5413956802,-0.20268046855926514
112.6251786412,-0.38041728138923636
112.70896417579999,-0.3881883442401886
112.7927524184,-0.10093394517898562
112.8765379754,0.06072994470596318
112.96032487119999,-0.08557730317115779
113.04410902459999,-0.11892557144165043
113.1278943906,-0.5513020157814026
113.21168018739999,0.12844257950782773
113.29546578739999,-0.15422787964344026
113.3792487484,-0.43732592761516564
113.46303699539999,-0.21907029449939724
113.54682263939999,0.09099298119544982
113.63060814,0.1636081933975219
113.7143943828,0.15192191600799557
113.798179293,-0.5223187863826751
113.881964868,-0.01248052418231962
113.965750494,-0.007135313749313338
114.0495359844,0.05401152074337005
114.13332193440002,-0.0567267507314682
114.2171047346,-0.18622874617576596
114.3008928982,0.21037243008613582
114.3846779812,0.42501510977745055
114.46846448419998,-0.3337807357311249
114.5522487044,-0.04490843787789348
114.636036231,0.1269977986812591
114.71982074060001,0.21592346131801604
114.80360325400002,0.20136117339134213
114.88739260499999,0.12643996551632877
114.971177546,-0.33759753704071044
115.054961478,0.12222793176770208
115.13874878820002,0.3455957293510437
115.22252990979999,0.10640088096261022
115.30632236440002,0.07309589385986329
115.39010552079999,-0.1820860236883163
115.4738885814,-0.12806394454091785
115.5576767448,0.5816218435764313
115.6414623614,-0.03678186908364296
115.725248994,-0.013377319276332834
115.80903088939999,0.09907078444957731
115.89281910100001,0.11190966069698331
115.97660212539999,0.3740395843982697
116.0603902546,0.07993306517601013
116.1441788674,-0.15473496615886684
116.22795905939999,0.0008294880390167597
116.3117472068,0.44869996309280386
116.39553273679999,0.2537739157676696
116.4793184488,-0.0949178338050842
116.56310402439999,-0.01898092031478878
116.64688967100001,0.1886184692382812
116.73067639599999,0.16800244450569152
116.8144614282,0.1297087550163269
116.8982460252,-0.1597519367933273
116.98203215580001,0.02259330451488493
117.06581768599999,0.2394424676895141
117.1496033,0.09895721673965455
117.2333889774,0.09425430297851559
117.3171720322,0.10887712836265562
117.4009600898,0.23142790794372559
117.48474587860001,0.1350894749164581
117.56853144179999,-0.18937823176383964
117.65231704160001,0.1849326908588409
117.736102727,0.22375798225402832
117.81988830259999,-0.1318699151277542
117.9036768078,0.09638218879699707
117.9874545318,-0.10124552845954889
118.07124509,-0.027056327462196328
118.15503074220001,0.17426462769508358
118.238816387,-0.009766399860382058
118.32260021500001,-0.2336134999990463
118.4063876516,0.036325088143348686
118.49017335360001,0.14438431262969967
118.57395894719998,0.06201576590538026
118.6577445916,0.0028567075729370337
118.7415301774,-0.11391509175300593
118.8253158542,0.10706037878990174
118.90910146460001,0.1259657740592957
118.99288647019998,0.00463163852691652
119.0766733826,-0.01778119206428528
119.16045838400001,0.0888131976127624
119.24424395119999,0.03979150652885434
119.3280296856,-0.2683086693286895
119.4118152242,0.15080037117004388
119.495598244,0.238037371635437
119.5793844056,0.0003153264522552657
119.6631698548,-0.19521665573120114
119.7469556194,0.2344873309135437
119.83074345940001,0.14860227108001706
119.9145291282,-0.08636513352394101
119.9983149196,-0.1158518254756927
120.0821003824,0.12770975232124326
120.16588606999998,0.4116182088851928
120.2496717576,0.06791073679924012
120.3334574064,-0.1343185305595398
120.4172429428,-0.07173925042152401
120.5010282258,0.21549472212791437
120.58481428719999,0.21013476848602292
120.6685999762,-0.19143648743629454
120.7523854646,0.23374141454696656
120.8361711966,0.11486060619354244
120.9199548758,0.07395303249359127
121.00374258719998,0.21692660450935364
121.08753077479999,0.11998433470726014
121.17131121799999,0.14405766725540156
121.2550969312,0.048596853017806974
121.3388852346,0.07391278743743894
121.42266814499999,0.26728290915489195
121.50645649980001,0.4587810873985291
121.590242179,-0.26641568243503566
121.674030045,0.04657344818115234
121.7578135558,0.46050569415092457
121.8415991654,0.14337950348854062
121.92538460040001,0.14702906012535094
122.00917056040001,-0.299355736374855
122.0929535234,0.3378109872341156
122.17674184580001,0.481856906414032
122.260528131,-0.020502936840057363
122.3443132756,-0.19730303287506099
122.42809884879998,0.15768034458160402
122.5118819074,0.39419572353363036
122.59567022920001,0.34949899315834043
122.67945589860001,-0.013525193929672236
122.7632414818,0.06444674134254455
122.84702720160001,0.2285390019416808
122.93081025640001,0.17843851447105402
123.0145959664,0.11206746697425836
123.098384154,0.3309895813465118
123.1821698594,0.08800174593925474
123.2659528954,0.06659976243972779
123.34974128260001,0.2402348637580871
123.4335262822,0.0455563127994537
123.51731280419999,-0.07519288659095764
123.60109832480002,-0.2818973779678345
123.68488396299999,0.10798285007476804
123.7686695808,0.17203272581100462
123.8524553818,-0.19133219122886652
123.93624179800001,0.03644000291824336
124.0200261466,-0.022501647472381578
124.1038123994,-0.033773702383041386
124.1875981642,-0.01130003333091734
124.2713838314,-0.07255491614341732
124.35516691179998,-0.005181139707565318
124.4389551406,0.055625140666961614
124.52274074639999,0.02037262916564942
124.6065267818,-0.18084031343460077
124.6903123168,0.22714201211929316
124.7740979206,0.07620007395744322
124.85788571559999,-0.08040195703506468
124.94166935220001,-0.10970259308815003
125.0254568456,0.054426437616348224
125.10924306039999,0.2255550265312194
125.19302363499999,-0.13607670366764066
125.27681248399999,-0.1911498069763183
125.36059755080001,-0.0973878800868988
125.4443834148,0.1820272922515869
125.52816924060001,-0.03312272429466248
125.61195491140002,-0.15094199180603024
125.69574072100002,-0.0978800892829895
125.7795262924,-0.17815759181976318
125.8633120488,0.21621354818344116
125.94709779120001,-0.14228082299232478
126.03088354159999,-0.3737734675407409
126.1146690602,-0.28021296858787537
126.19845496299999,0.09505681991577145
126.2822399664,-0.04597140550613402
126.3660271512,-0.2565074861049651
126.4498120026,-0.7203540444374085
126.53359761699998,-0.34062262177467345
126.6173835136,-0.08236279487609863
126.70116928020002,-0.46065821051597594
126.78495487979998,-0.5650695502758026
126.86874060559998,-0.13057743906974792
126.95252637659999,0.1885553121566772
127.0363121228,-0.21654945611953735
127.1200978084,-0.4389619410037994
127.2038835242,-0.2382753908634186
127.28766926220001,0.21600428819656367
127.371452488,-0.10525723695755004
127.455238484,-0.2556705713272095
127.53902613059999,-0.2114913702011108
127.62281161840001,0.21555888652801508
127.70659528979999,0.2448418021202087
127.79038332719999,-0.3929065763950348
127.8741684288,-0.48205114006996147
127.95795504140001,0.202564525604248
128.04174077380003,0.05235845446586609
128.1255238766,-0.2167050719261169
128.20931427440001,-0.5059823393821716
128.2930979536,-0.29874117970466607
128.37688383620002,-0.058940917253494284
128.46066836600002,0.2586155772209167
128.54445617940002,-0.5855429768562316
128.628240898,-0.22477872967720028
128.712026642,-0.25780766010284417
128.79581235380002,-0.1703854918479919
128.8795981314,-0.07733262777328484
128.96338379960002,-0.39426513314247125
129.04716959720002,-0.42134556770324705
129.1309527212,-0.0011037707328796387
129.21473852820003,-0.23718631267547602
129.29852689880002,-0.15446445345878596
129.3823126982,-0.05413639545440672
129.4660950164,-0.03631311655044554
129.54988404060003,-0.28164051771163934
129.63366868600002,-0.08208491802215571
129.7174535146,-0.07942755818367002
129.8012412372,0.20639319419860835
129.8850270828,-0.11947123408317564
129.9688077998,-0.062652575969696
130.0525985734,0.030062782764434824
130.1363842444,0.043223810195922835
130.22016743920003,0.0960620045661926
130.3039557776,0.011711883544921859
130.3877416258,-0.04739221930503844
130.47152721320003,0.07388032674789424
130.55531441620002,0.15146546363830563
130.63909360320002,-0.014655727148056042
130.7228846086,0.13255047798156733
130.806670225,-0.1904779881238937
130.89045598980002,0.10368463397026059
130.97424185,0.15568591356277464
131.05802766740004,-0.0240937054157257
131.14181043520003,0.030973851680755615
131.22560208520002,0.28488197922706604
131.3093849472,-0.04075273871421816
131.39316756,-0.045834881067276
131.476956397,-0.22370899319648738
131.56074219,0.30313658714294434
131.6445279242,0.1744801759719848
131.7283137784,0.05570819377899165
131.81209950200002,-0.14996975362300868
131.8958853178,-0.002372401952743524
131.97967099299998,0.04309082031249996
132.06345711140003,0.10222976207733152
132.1472425524,0.13743972778320312
132.23102836200002,-0.17559256553649902
132.314814115,-0.05505569577217101
132.3985999276,0.07213560342788691
132.4823885366,0.313817799091339
132.56617143900002,-0.3538458228111267
132.649957232,-0.36320692896842954
132.7337430338,0.04789330363273618
132.81752861900003,-0.14831726849079124
132.901314498,0.017776763439178455
132.9851001806,-0.22785292267799373
133.0688841366,-0.1245453059673309
133.1526718076,0.020072519779205305
133.2364576024,-0.08360115289688105
133.320243591,-0.026461511850357045
133.40402925420003,0.11082142591476436
133.4878082928,0.11014488935470579
133.5716007814,-0.26605659723281855
133.65538657780002,0.14982341527938842
133.73917235899998,0.1208450615406036
133.8229556296,0.05522766113281248
133.9067438906,0.15531027913093565
133.99052982820004,-0.13175063729286185
134.07431559239998,0.12538179457187648
134.15810127420002,-0.011766183376312236
134.2418848332,0.030412501096725462
134.32567036580002,-0.037963971495628315
134.4094587812,0.1759970784187316
134.4932439658,-0.042082107067108146
134.5770307054,-0.315929952263832
134.66081615700003,0.025493043661117563
134.74460193160002,0.3321384847164154
134.8283837796,-0.13429221212863918
134.9121733894,-0.22181985676288601
134.99595933339998,-0.06626214087009427
135.0797450976,0.15800128579139708
135.163528159,0.07859767675399784
135.247316698,-0.28261621296405787
135.3310994542,0.1815643191337585
135.4148836402,0.22192425727844234
135.4986740512,-0.2098916471004486
135.58245979140003,-0.0029065549373626766
135.66624325920003,0.2833236217498779
135.7500299148,0.09470815658569331
135.83381720120002,0.0894373834133148
135.9176035724,-0.10882230103015895
136.0013877378,0.18084621429443354
136.0851728064,0.260516881942749
136.1689604936,-0.14821502864360805
136.25274640080002,-0.03897942900657651
136.3365320394,0.332762086391449
136.4203181762,-0.1934536874294281
136.50410371920003,-0.06311866641044617
136.5878895692,-0.002904134988784757
136.6716754418,0.08257951736450198
136.75546127720003,0.22213006019592285
136.8392425296,-0.2662448734045028
136.92303242640003,-0.016911023855209335
137.00681644920002,0.39382658600807186
137.0906045092,0.04781233966350558
137.17439027340004,0.02801301479339598
137.258176152,0.10215182900428765
137.34195991480001,0.02871724963188168
137.425745901,0.13795871138572688
137.50953358220002,-0.037692427635192836
137.59331905800002,0.10161514878273001
137.6771026476,-0.04796067476272579
137.76089114279998,0.03962336778640744
137.84467678160001,-0.14527324736118316
137.9284626982,-0.049420350790023784
138.0122485278,-0.03434619903564448
138.0960344104,-0.014435392618179322
138.1798201386,-0.10024064183235167
138.2636060684,-0.09159399867057795
138.3473918084,-0.09208148717880242
138.4311777258,0.024581122398376443
138.5149634436,0.18841227889060969
138.598749391,-0.13521691560745233
138.682535233,-0.09638198316097257
138.766320886,0.003339865803718589
138.85010699640003,0.34006582498550414
138.9338927102,-0.008323469758033785
139.01767593180003,-0.13554171919822688
139.1014641172,-0.05336111783981323
139.18525012420002,0.22514955997467037
139.26903605180001,0.28188974857330323
139.35282190720002,-0.2002291351556778
139.4366058086,0.09845954775810237
139.52039354480002,-0.005299094319343589
139.60417738680002,0.19424644708633415
139.6879634322,0.19283809065818786
139.7717512292,-0.2664763212203979
139.8555369248,-0.17349315881729127
139.939322329,0.08424252867698664
140.0231085008,0.043138271570205666
140.1068945828,0.0979038119316101
140.19067761320002,-0.18407695889472953
140.274466157,-0.022928524017333956
140.35825199840002,-0.10481714904308315
140.4420378974,0.026226627826690684
140.5258211534,-0.17335681617259974
140.6096095878,-0.08107574880123136
140.693395407,-0.41701471209526053
140.77718137719998,0.0315086543560028
140.860967087,-0.19531460702419276
140.9447529656,-0.010788196325302143
141.0285388926,-0.23857832551002497
141.112324688,-0.0797542333602905
141.1961083774,0.14011110663413995
141.27989646760003,0.02436265349388122
141.3636822706,-0.21753618717193604
141.44746960400002,0.01039544641971587
141.531253979,0.04930037260055545
141.615039396,0.00953151583671572
141.698825787,-0.031026136875152564
141.7826117122,-0.0282361268997192
141.86639741160002,-0.1420690834522247
141.9501808676,0.08690547347068785
142.0339692448,0.14822567701339717
142.11775513899997,0.1148419260978698
142.20154030179998,-0.12446082830429073
142.2853275006,0.0086426794528961
142.36911062820002,-0.02432619035243988
142.4528978458,0.03762688636779786
142.5366843856,-0.03554928600788112
142.6204702986,-0.25631248354911806
142.704256159,-0.13238299489021296
142.78804213920003,0.024637639522552483
142.87182781040002,-0.15570333302021022
142.95561375760002,-0.0002876937389373835
143.0393970792,-0.09295021593570708
143.1231856086,-0.06350598037242886
143.2069714282,0.3273983895778656
143.2907546276,-0.20095939040184022
143.37454315500003,-0.36888492405414575
143.4583265332,0.09090996384620662
143.5421106738,0.15680983066558835
143.62590025100002,0.16462260186672206
143.7096868768,-0.4300477564334869
143.7934726698,-0.04678145647048948
143.8772584364,0.07926288843154906
143.961044425,0.27524817585945127
144.04483024639998,-0.2569785326719284
144.12861356360003,-0.19020676314830773
144.21240197080002,-0.03491106927394869
144.2961879368,0.20503425598144526
144.37997377280004,0.3238105297088623
144.46376166340002,-0.04178637564182282
144.54754596540002,-0.39522471725940705
144.6313314492,-0.013962838053703302
144.71511735619998,0.5073786795139312
144.79890327959998,0.28346808552742003
144.88268906080003,-0.13309821486473078
144.96647500980004,-0.00815942287445066
145.0502608236,-0.13069449663162228
145.1340468058,0.5031279921531677
145.2178300604,0.15708855390548698
145.30161839860003,-0.0051253795623779005
145.3854045088,-0.05198066234588618
145.46919038340002,0.06232670545577999
145.552976209,-0.05709952712059017
145.63675998579998,-0.10668822526931758
145.7205481002,0.10054560899734492
145.80433398300002,0.0765675663948059
145.888117443,0.07603863477706904
145.971905844,-0.05655661821365354
146.0556916934,-0.20683112144470212
146.13947514699998,0.010640573501586922
146.2232648956,0.10423269271850581
146.307048717,-0.06899544000625604
146.3908359898,-0.06096414923667902
146.4746186596,0.05262268781661985
146.55840704480002,0.0389674186706543
146.6421930532,0.06709381341934201
146.72598011359997,-0.3271420657634735
146.8097649308,-0.15392077565193174
146.8935507724,0.2664910316467285
146.9773366614,0.20013880729675285
147.0611225238,0.17317038774490348
147.1449071124,-0.2501001179218292
147.2286943742,-0.15572597980499264
147.31248022,0.01632285118103028
147.3962662674,0.18305064439773558
147.48004768840002,0.08046413660049433
147.56383728220004,0.045718741416931157
147.6476246052,-0.08625782728195189
147.7314098796,-0.10316644310951226
147.81519387800003,-0.005685210227966318
147.89898171600004,0.0017164468765258623
147.9827676294,0.177779471874237
148.0665535074,-0.007714498043060325
148.1503395874,-0.04988975524902344
148.2341253644,-0.21016440391540522
148.317908883,-0.06571658253669742
148.4016966318,0.4460400819778442
148.4854813966,-0.01681327819824216
148.56926870580003,-0.21620454192161556
148.6530556482,-0.140590488910675
148.7368409778,0.20285688638687133
148.8206269682,0.0007210731506347545
148.9044127958,-0.17645579576492304
148.98819870720004,-0.24758518338203425
149.07198472600004,0.09204330444335937
149.15577070580002,0.07871184349060056
149.23955656200002,-0.004381430149078397
149.3233425384,-0.02096656560897824
149.4071284106,0.03783903121948241
149.4909143732,0.13179416656494136
149.57469998480002,0.12810658216476434
149.6584838272,-0.1815805613994598
149.74226947760002,-0.19915226697921748
149.82605809900002,-0.033263170719146716
149.9098441136,0.1784285008907318
149.9936273862,0.13861592411994933
150.0774159646,0.004246544837951655
150.1611987792,0.024405801296234104
150.24498818939998,0.2868594646453857
150.32877368520002,0.3528210639953613
150.4125596454,0.1807430505752563
150.4963456236,-0.08984919786453242
150.580131476,0.24985705614089962
150.6639174828,0.2212414801120758
150.74770345480002,-0.053633058071136476
150.8314894534,-0.1589545130729675
150.91527534380003,0.12393673658370967
150.99906132440003,0.281551045179367
151.08284734960003,0.13120696842670443
151.1666360232,-0.28158158063888544
151.250419082,0.3319069504737854
151.33420510540003,0.30653175115585324
151.41799106320002,0.2716104507446289
151.5017744026,0.1625477015972137
151.5855628502,0.24235013723373408
151.66934890000002,0.45592398643493653
151.75313262620003,0.32305427789688107
151.83692086460002,0.09895660281181333
151.92070672519998,0.049939855933189406
152.00449273600003,0.36539321541786196
152.0882758232,0.3697398006916046
152.1720644174,-0.1780203819274902
152.25584800119998,0.03169994950294491
152.3396365024,0.2600995421409607
152.42342247640002,0.5239041388034821
152.50720587100002,0.3844376921653747
152.590994374,0.029614883661270103
152.6747803586,0.39604448080062865
152.75856633220002,0.20857157707214352
152.8423484082,0.30905282497406006
152.92613561520002,0.28267183303833004
153.0099242574,-0.12243964672088621
153.09371023900002,0.13573848009109496
153.1774962256,0.3455387234687805
153.2612821392,-0.04706501364707945
153.3450681418,-0.0866811990737915
153.42885402400003,-0.04188491106033324
153.51264012860003,0.29837869405746453
153.59642597040002,0.17804471254348755
153.68021199380001,-0.052930080890655505
153.7639979598,0.00896502733230592
153.8477813642,0.4107027769088745
153.93156982460002,0.20799598693847657
154.01535586539998,-0.023842287063598665
154.0991419016,0.14152829647064205
154.18292914280002,0.28704477548599244
154.26671377000002,0.40359411239624016
154.350499848,-0.04313893914222717
154.43428313880003,-0.1022059440612793
154.5180717924,0.42736889123916627
154.601857691,0.3067264914512634
154.68564371,0.04346154928207394
154.76942697020004,-0.10131481289863582
154.85321564219998,0.4001554369926453
154.9370015634,0.24206295013427734
155.02078761520002,-0.19137675166130064
155.10457049860003,-0.42029979825019836
155.18835948400002,0.2441560983657836
155.27214621500002,0.1923537969589233
155.35593452880002,0.023848068714141798
155.4397176346,-0.1425821185111999
155.5235036002,-0.1573103785514831
155.6072894484,-0.07577568292617795
155.6910755288,0.006287622451782229
155.7748574844,-0.0070747613906860405
155.8586474278,-0.28803051114082334
155.94243081040003,-0.0544032633304596
156.0262167904,-0.24728527069091794
156.110005473,-0.15620999336242675
156.1937915058,-0.27512817978858944
156.2775773946,-0.0681484282016754
156.36136209759997,-0.2489915549755096
156.4451494608,-0.33371459841728207
156.5289354596,-0.07407373189926147
156.61271894360002,-0.13774945735931393
156.69650742000002,-0.4792928099632263
156.78029339660003,-0.11800214648246765
156.86407952340002,-0.10680128335952759
156.94786543200001,0.2312043666839599
157.0316513842,-0.07913697957992549
157.11543738460003,-0.39055067896842954
157.1992233404,-0.10672404766082762
157.28300929200003,0.11052800416946407
157.36679272120003,-0.06071404218673704
157.4505813424,-0.3901926457881927
157.53436744660002,-0.26284430623054506
157.61815333920003,0.16392129659652704
157.70193672800002,-0.045622992515563954
157.78572533480002,-0.40806649327278127
157.8695114982,-0.17768634557723992
157.9532973174,0.1843711614608764
158.0370833732,0.1229196190834045
158.1208694534,-0.21255652904510494
158.2046531588,-0.12833756208419794
158.2884411736,-0.18634320497512816
158.37222752220003,0.24091832637786864
158.4560154004,0.07079830169677732
158.53979697020003,-0.5684396028518676
158.623585461,-0.39827053546905516
158.7073715186,-0.06341881752014158
158.7911554708,0.040734565258026094
158.8749436586,-0.41919405460357667
158.9587295654,-0.20104619264602658
159.0425171204,-0.3791127920150757
159.126299013,-0.01582775115966797
159.21008765279998,0.05103178024291992
159.2938735984,-0.43094378113746645
159.37765970080002,-0.1671101570129394
159.46144568760002,-0.5652553796768188
159.5452314456,-0.3231640458106994
159.6290139854,0.15589597225189206
159.712801085,-0.10949212312698361
159.79658978720002,-0.33580766916275023
159.88037580640002,-0.34844107627868653
159.96416172380003,-0.16576628684997557
160.0479478196,0.042938148975372306
160.13173381000004,-0.47845216393470763
160.21551989600002,-0.35320793390274047
160.2993058478,-0.1765362679958343
160.38308773720001,0.11954334974288938
160.4668778962,0.0472659945487976
160.5506640392,-0.2811259746551514
160.6344455496,-0.0028714895248412795
160.71823606080002,0.26946523189544674
160.8020221184,-0.10017328858375549
160.8858081776,-0.22076073288917536
160.96959421280002,-0.09052571058273315
161.053380177,0.11360522508621221
161.13716622639998,-0.03389236927032474
161.2209523248,-0.32540892362594603
161.3047376176,-0.05645402073860169
161.38852251940003,0.25841714143753053
161.47231039780002,0.2762380957603454
161.55609236220002,-0.19814212322235103
161.63988245000002,-0.0806819677352905
161.72366852800002,0.25280807018280027
161.80745460600002,0.18031176328659057
161.8912406436,-0.04212146997451779
161.9750266826,-0.2805182099342346
162.0588123416,0.0423188805580139
162.1425960268,0.18049575090408324
162.2263847618,-0.07964738607406616
162.31016801200002,-0.2804596424102782
162.39395681200003,0.06097280979156494
162.4777386742,0.14737945795059199
162.5615267524,-0.16244425773620605
162.6453148948,-0.021967256069183337
162.7291010076,-0.2235903143882751
162.81288544160003,-0.0470125317573547
162.89667319400002,-0.28757396936416624
162.98046027700002,-0.429356586933136
163.0642452278,-0.11492148637771607
163.14803130800001,-0.43965824842453005
163.23181743080002,-0.5779953837394715
163.3156033394,-0.2103599309921264
163.39938943580003,-0.13153091669082637
163.48317612620002,-0.4585803747177124
163.566958965,-0.1512649536132812
163.65074759040002,-0.4327377974987029
163.7345350458,-0.1621781468391418
163.81831975080001,-0.17700040340423584
163.9021058058,-0.32270268201828
163.98589184920002,-0.2481194853782654
164.0696778948,-0.09044173955917358
164.15346392140003,-0.07295826673507692
164.237250089,-0.44556198716163636
164.321036047,-0.07490206956863399
164.40482195420003,-0.13673582077026364
164.48860842439998,0.05515098571777344
164.5723942952,0.06216427087783812
164.65617364460002,-0.20056388378143306
164.7399664102,-0.26528384685516354
164.8237523948,0.14934605360031128
164.9075386108,-0.17195551991462704
164.9913244836,0.13345597982406612
165.0751106344,-0.05469210743904115
165.1588967612,-0.24155373573303218
165.2426803998,0.07028290033340452
165.3264681888,0.06750414371490475
165.41025554040002,0.2678119421005249
165.4940385892,-0.13362112045288085
165.5778271408,-0.25516397356987
165.66161061920002,0.18705319166183468
165.7453991314,0.37555800676345824
165.82918531139998,0.0011400610208511352
165.91297081780002,-0.2998657524585724
165.9967581408,0.13739293813705442
166.0805435374,0.27061288952827456
166.16432963120002,0.08404410481452937
166.24811576040003,-0.0005603194236755371
166.3319017468,-0.09349736571311952
166.41568728540003,0.2331519365310669
166.49947463100003,0.16428747177124017
166.5832579482,0.07235192656517028
166.6670443614,0.01918869018554691
166.7508329928,0.2067614078521728
166.83462111980003,0.01717295944690706
166.91840239020001,0.28765788674354553
167.0021903334,0.19116871356964105
167.0859779984,0.09264808297157281
167.1697580118,0.22930486798286434
167.25354870760003,0.09319143891334529
167.3373347612,0.27963147759437557
167.42112080279998,0.11358480155467984
167.5049046876,0.35038932561874386
167.5886936256,0.37777999937534334
167.6724785256,0.28133409321308134
167.756265226,0.4986002504825592
167.8400513064,0.3778655529022217
167.9238377016,0.5984967827796936
168.00762350680003,0.10089102685451508
168.09140960520003,0.3622812867164612
168.1751957198,0.5497985005378723
168.2589788724,0.36639249324798584
168.3427679018,0.2634066045284271
168.4265540046,0.4143146634101867
168.51034002140003,0.423753148317337
168.5941263006,0.2444207072257995
168.6779096748,0.3583694756031036
168.76169837380002,-0.12481011450290676
168.84548217219998,0.3769917845726013
168.9292706552,0.42066339254379265
169.01305794959998,0.2677165150642395
169.0968428294,0.037739026546478247
169.1806289154,0.16778959035873403
169.26441473300002,0.3621894240379333
169.34820106520002,0.36083009243011477
169.4319871454,-0.313419371843338
169.51577331879997,-0.27695176005363464
169.59955950040003,0.26222454309463494
169.68334482179998,0.11442350149154659
169.7671322828,-0.01383051872253418
169.85091781399998,-0.34068155884742735
169.93470385519998,-0.13661402463912964
170.0184873738,0.21141432523727416
170.1022760818,-0.16049770116806023
170.1860622332,-0.17152017951011655
170.2698484148,-0.20415455102920532
170.3536343444,0.17835565805435177
170.4374205568,-0.043574249744415275
170.521206708,0.12334625720977777
170.60499283860003,0.03776543140411378
170.6887788596,0.0342389702796936
170.77256061420002,0.11081434488296509
170.856351103,0.05153161287307739
170.94013735360002,-0.23347576260566708
171.023923326,-0.005860137939453142
171.1077055934,-0.13263360857963558
171.191490587,0.03265599012374874
171.27528191740004,-0.10978322029113766
171.35906522100004,-0.2762574374675751
171.44285401660002,0.15184906721115107
171.52664009660003,0.07637726068496699
171.61042487880002,0.04551185965538023
171.6942123,-0.05952175259590149
171.7779984974,0.284917402267456
171.86178216240003,-0.2417540311813354
171.945570767,0.04444517493247984
172.0293568124,0.0657867550849914
172.1131446484,-0.07214298248291014
172.1969291392,-0.2578672707080841
172.2807152544,-0.004540413618087759
172.36450128719997,0.08845739960670468
172.4482875054,-0.01524403691291808
172.5320735932,0.11914044618606565
172.6158572648,-0.07633579969406125
172.6996457964,0.00887766480445864
172.783431982,0.10460715293884278
172.8672182328,0.15188517570495602
172.9510043498,0.25694596767425537
173.03478780740002,-0.2184686124324798
173.11857656440003,0.03804454803466794
173.20236012560002,0.22124732732772823
173.2861482072,0.06207516789436338
173.3699350036,-0.06320607066154475
173.453721155,-0.1232696413993835
173.53750729200002,0.09318618774414054
173.62129351840002,0.06134383678436277
173.70507952320003,-0.2382093906402587
173.78886567220002,-0.41512629985809324
173.8726531376,0.17269510030746454
173.9564380252,-0.11250598430633545
174.04022408100005,-0.43633911609649656
174.12400767280002,-0.1875249624252319
174.2077964732,-0.22817764282226558
174.29158170680003,-0.290241777896881
174.3753686838,-0.5555652499198913
174.4591523366,-0.3863018214702606
174.5429409616,-0.07462681531906122
174.6267245716,-0.048543345928192136
174.71051323140003,-0.4774451971054077
174.79429944760003,-0.5085697293281555
174.87808555220002,0.1313518762588501
174.96186920080004,-0.16540363430976868
175.0456577992,-0.4925262451171875
175.12944143,-0.35415552258491517
175.21323020140002,0.07392784357070922
175.29701645620003,-0.15845928788185118
175.38079989980002,-0.47545592188835145
175.4645885756,-0.3649211823940277
175.5483726376,-0.06884623765945433
175.63216128060003,0.054022765159606946
175.71594690720002,-0.22352717518806453
175.7997333882,-0.3502711236476898
175.8835194598,-0.10727865695953365
175.9673057494,-0.08921536207199093
176.05109172800002,-0.3627321898937225
176.1348768538,-0.059247922897338844
176.21866439000001,-0.13015287518501278
176.30245235820001,-0.18646709322929372
176.38623639320002,-0.4014732539653777
176.4700226178,0.16458255052566528
176.55380871640003,0.1024365127086639
176.6375950116,-0.3767405450344085
176.721380624,-0.24745258688926697
176.8051673042,-0.06582883596420284
176.8889533734,0.08735269308090206
176.97273664180005,-0.016860735416412358
177.05652317960002,-0.29672960638999935
177.14031190040004,0.08448156118392938
177.22409804760002,0.006551671028137221
177.3078843172,-0.01079857349395752
177.3916702692,0.04378814697265627
177.47545658020002,-0.048048013448715184
177.55924012960003,-0.20283953249454495
177.643029058,0.4117405652999878
177.726817313,0.004804286360740667
177.81060146600004,-0.0117171108722687
177.8943873998,0.08757653236389154
177.97817412040004,0.28805997967720026
178.0619598282,0.32947338819503785
178.1457431224,0.006135722994804383
178.22953270400004,-0.2015915751457214
178.31331846880002,0.18736884593963618
178.39710449340004,0.3159676611423492
178.4808907222,0.13537856340408325
178.564676959,0.24428820013999938
178.64846317720003,0.11245644688606256
178.73224921239998,0.3421704947948455
178.8160356362,0.403205144405365
178.89982172240002,-0.26545687615871427
178.98360779220002,0.42475544810295107
179.06739396560002,0.43982131481170655
179.1511776452,0.22192884683609
179.2349640916,-0.2825222373008728
179.3187532212,0.29430840015411375
179.40253869460003,0.11322450637817383
179.48632247940003,0.3667371034622192
179.57011112740003,0.2244707703590393
179.653898499,-0.019402039051055947
179.73768344360002,0.5374537587165833
179.8214696846,0.003916364908218395
179.9052558928,-0.1674127072095871
179.98904218240003,0.33393594026565543
180.072828785,0.33008033633232114
180.1566145252,0.09882184565067291
180.24040318700003,0.250182980298996
180.3241870108,-0.12580876946449276
180.407973058,0.34266418814659116
180.49175667440002,0.5268422782421112
180.57554542760002,0.0076810061931610035
180.6593318326,0.24183699488639826
180.7431180046,0.3342945098876953
180.8269015008,0.233489990234375
180.9106903374,0.04770265817642212
180.99447655979998,0.06258582472801204
181.07825997239996,0.08528704047203063
181.1620488868,0.4505921840667725
181.2458375448,0.1362766861915588
181.32961475780002,-0.3282173246145248
181.41340748480002,0.004756405949592602
181.4971965186,0.12136917114257809
181.5809799318,0.04721902608871458
181.6647661438,-0.3617751866579055
181.748552254,-0.14872855246067043
181.83233848499998,0.20828405618667603
181.91612473380002,0.011366444826126105
181.9999083764,-0.2883740574121475
182.0836970566,-0.11904366910457609
182.16748332779997,0.4490003168582916
182.2512695458,0.5576000869274139
182.33505577839998,-0.04352397918701173
182.41884195400002,-0.17024912238121032
182.502628156,0.42796688675880434
182.5864144048,0.32253825664520264
182.6702020514,0.07229996025562287
182.7539869372,-0.016907241940498342
182.8377730722,0.0247074544429779
182.9215592988,0.3127136826515197
183.005343977,-0.014735668897628774
183.08913166419998,-0.3680219769477844
183.1729154162,-0.04804967343807218
183.25670410080002,0.08662055134773254
183.340490445,-0.11698912382125852
183.42427653120004,0.0389137625694275
183.508062737,0.17330243587493893
183.59184908,0.2651005148887634
183.67563536699998,0.14594748020172113
183.75942151040002,-0.27422570586204525
183.84320772040002,-0.3391109108924865
183.926993902,0.11453354358673092
184.0107803646,-0.06433147192001341
184.094568774,-0.3093823492527008
184.1783525714,-0.09883643388748167
184.262138784,-0.524922239780426
184.3459250854,0.03300694823265078
184.4297111776,0.14479454159736632
184.51349484460002,-0.2396030098199844
184.5972836912,-0.002280062437057517
184.6810673404,0.27703129053115844
184.7648561054,-0.08369513750076288
184.848642322,0.11941263079643245
184.93242878860002,0.052245336771011355
185.016214911,-0.027684342861175538
185.1000010298,0.15653223991394036
185.18378736840003,-0.22446288466453548
185.2675735888,-0.17119536995887757
185.35135613859998,0.14001839160919186
185.435146005,-0.08997101783752437
185.5189323374,-0.14853137731552118
185.60271605280002,-0.25600140094757073
185.6865048532,-0.10044597387313843
185.7702910046,0.15765211582183833
185.85407724700002,-0.2894103944301604
185.9378635102,-0.4371625304222107
186.02164985680002,-0.1257768273353576
186.1054354546,-0.1666197657585144
186.189222271,-0.13599960803985592
186.273008489,-0.3880282998085022
186.35679478660003,-0.19026720523834223
186.4405809096,-0.03324645757675172
186.524364585,-0.3586071610450744
186.608152734,-0.11494274139404295
186.6919404072,-0.17293983697891233
186.77572517660002,-0.25854344367980947
186.8595121312,-0.15859817266464232
186.9432983558,-0.13142603635787958
187.0270846718,-0.07088800668716427
187.1108682212,0.04620087146759034
187.1946569924,-0.26617190241813654
187.2784391358,-0.2890259742736816
187.3622298098,-0.11718730926513668
187.4460157122,0.13656321763992307
187.52979978219997,-0.34488579034805295
187.6135884218,-0.3737118422985076
187.6973720908,-0.04014541506767275
187.78116298679998,0.22867441177368164
187.8649471992,-0.19627957940101623
187.94873347,-0.33519514799118044
188.0325198104,-0.06389732956886288
188.1163059146,0.14397954940795893
188.2000922488,0.27958477735519405
188.2838785124,-0.31539401412010193
188.36766476140002,-0.1509659230709076
188.45145096919998,0.26211456656455995
188.53523728320002,0.28634212613105764
188.6190235482,0.09731636643409726
188.70280934559997,-0.29370180666446677
188.7865966334,0.0393378347158432
188.8703823072,0.40075225830078115
188.95417114979998,-0.012157493829727185
189.0379548252,-0.011780822277069091
189.1217410252,-0.01732465624809267
189.2055262668,0.23330389261245726
189.28931356340001,0.13336412310600276
189.373099908,0.10496930181980131
189.45688603460002,0.059935957193374634
189.5406723976,0.4627889156341552
189.6244587888,-0.07159737348556519
189.70824433340002,-0.15907594859600066
189.79203117859998,0.2507372260093689
189.87581787099998,0.20655786395072934
189.9596033792,0.06026544570922848
190.04338745939998,-0.011113476753234864
190.127174206,-0.0166063904762268
190.21096264460002,0.04170942306518554
190.294748885,-0.12274895608425136
190.3785352112,-0.1609956175088882
190.462321383,0.007379996776580783
190.5461077248,0.17744231224060053
190.62989142080002,-0.08001793920993802
190.71368031,0.1557761013507843
190.7974633342,0.16639540195465083
190.9080650466,0.09340078234672541
191.03206809119996,0.004864305257797236
191.1158544334,0.32167484760284426
191.1996380596,0.32220703363418574
191.28342692719997,0.09528422355651849
191.36721327540002,0.160536253452301
191.4509994064,0.16108674407005305
191.53478567579998,0.4201835036277771
191.6185720972,0.3627442061901092
191.7023583626,0.24258732199668884
191.7861397426,-0.07594781219959257
191.86993088879998,0.3792548418045044
191.95371728199999,0.4562968730926514
192.0375033844,0.1279088795185089
192.12128984880002,-0.043875572085380496
192.2050760304,0.37782414555549615
192.2888623712,0.3539439439773559
192.3726502532,0.18874855041503902
192.45643504539999,0.12321671843528748
192.5402212578,0.047436571121215826
192.62400770780002,0.3974451839923858
192.70779387940001,0.09972984194755553
192.7915802242,-0.011270624399185197
192.87536646280003,0.12360826730728147
192.9591501784,0.2861545920372009
193.0429390192,-0.09955180883407587
193.12672543880004,0.08644560575485224
193.21051160500002,-0.11066781878471373
193.2942979408,0.11518656611442561
193.37808353260002,0.005619525909423817
193.46187058520002,0.036365330219268785
193.5456568052,0.02706330716609952
193.62944324339998,0.19594288468360896
193.7132272952,-0.27284490764141084
193.79701606240002,0.2350390672683716
193.8808017764,0.28020710349082945
193.9645858608,0.3342553436756134
194.0483745914,-0.22062574326992027
194.13216097039998,0.014604300260543868
194.215947215,0.30531581640243527
194.29973351880002,0.15598371922969817
194.383517139,0.16800218820571894
194.46730657199998,0.0006525933742523027
194.551092406,0.5780873894691467
194.6348788278,-0.013531285524368292
194.7186651214,-0.14337799549102784
194.8024514024,0.7599095702171326
194.8862381152,0.8279973864555359
194.97002368260002,-0.974592125415802
195.0538103772,0.46932295560836784
195.1375961538,0.5180776238441467
195.22138296820003,-1.1215587615966798
195.30516930059997,0.6103819847106934
195.3889556004,0.05069475173950191
195.4727403476,-0.916754299402237
195.5565256096,0.44884189367294314
195.64031453599998,-0.23255205154418945
195.7241008662,-0.31169425249099725
195.8078871984,0.5803882837295532
195.89167138040003,0.07361744642257688
195.9754598444,0.8536971807479858
196.05924362960002,1.0318764567375183
196.14303047660002,0.3329952836036682
196.22681872139998,-0.16504683494567873
196.31060513879999,-0.13741582334041597
196.39439140439998,-0.14064108431339262
196.478177775,0.17623862028121945
196.5619640484,-0.18064898848533625
196.64575031919998,0.17427772283554072
196.72953673320004,-0.5001645922660828
196.8133230326,0.04030749797821041
196.89710933860002,0.07584791779518127
196.98089564240001,0.7968211889266967
197.0646820034,-0.29587243795394896
197.1484659876,0.3759920120239258
197.23225464979998,-0.3207504630088806
197.3160410548,-0.5444994449615479
197.3998300622,0.7179021954536438
197.48361367700002,-0.09586337804794312
197.5674000354,-0.11746240854263305
197.65118637199998,0.6572735190391541
197.734970271,0.03779360055923471
197.8187591258,0.13349198102951046
197.9025453176,0.5032135844230652
197.98632919599999,0.6346228957176209
198.0701180308,0.5567784786224366
198.15390442200004,0.06705513000488274
198.23768570500002,0.022367680072784425
198.32147710520002,0.02311790585517881
198.40526278060003,-0.8118913412094116
198.48904828439998,-0.699537992477417
198.5728347428,-0.5305757164955139
198.65662242800002,0.35657217502593996
198.7404087418,-0.9212949812412262
198.824195119,0.10749374628067013
198.90798136760003,-0.6559786677360535
198.9917677754,-0.2658774495124817
199.07555192680002,-0.46522982493042947
199.1593378806,-0.4341715216636657
199.2431267922,-0.25671856999397275
199.3269131812,-0.13647953271865837
199.41069492399998,0.6695914387702941
199.494486318,-0.4178303599357605
199.5782717794,0.21021764278411864
199.66206103780002,0.437069308757782
199.74584232420003,-0.5030690371990204
199.82963129700002,0.5927978217601775
199.91341755440004,-0.7206884622573853
199.99720139020002,0.6467390537261963
200.0809903588,0.4372574329376221
200.16477668160002,0.03701037168502808
200.24856298100002,-0.19950565099716183
200.3323466888,0.8275482177734375
200.4161357004,-0.4645035743713379
200.4999222014,-0.22568490505218505
200.5837084826,0.032635176181793214
200.6674947602,-0.40539225935935974
200.7512822278,0.39827908277511587
200.8350675428,-0.4089249610900879
200.9188537978,-0.2597459614276886
201.0026401212,0.33491493463516236
201.08642661060003,-0.5574238419532775
201.1702128006,-0.03350659608840938
201.253999161,0.2730004668235778
201.3377856096,-0.002021598815918013
201.42157195599995,0.14493192434310914
201.5053560382,0.21244852542877196
201.58914469159998,-0.5624810099601746
201.67292844,0.5810282826423645
201.7567174294,-0.03691695928573606
201.8405039186,0.14029725193977355
201.9242901082,0.49973053336143486
202.0080765604,-0.5349053025245667
202.0918628784,0.8939149498939514
202.175649396,-0.5842012882232666
202.2594328676,0.39613889455795287
202.3432221822,0.1305304169654846
202.42700836580002,0.10095256567001343
202.5107945398,0.19266120195388792
202.59458153539998,-0.13330931067466734
202.67836760080002,0.6826185703277587
202.7621539312,-0.12025192975997923
202.84594032820002,0.9547433137893677
202.92972667700002,-0.40326360464096067
203.01351044359998,0.7474256992340088
203.09729939640002,0.4357947111129761
203.18108584700002,-0.10372405052185056
203.26486973759998,0.379912531375885
203.3486586004,-0.04652605652809144
203.43244486780003,-0.08222635984420776
203.5162287342,0.19857596158981322
203.6000175812,-0.01152995824813841
203.683802302,-0.3240850746631622
203.7675878248,0.5922457218170166
203.8513768202,-0.4029334902763367
203.9351630996,-0.3359180212020874
204.01895138280003,0.561590027809143
204.1027333348,-0.20598049163818355
204.18652241360002,3.789663314816005e-05
204.2703085954,0.2893901586532593
204.3540951128,-0.6370807528495789
204.4378790608,0.40196213722229
204.5216680194,0.2063533902168274
204.6054542464,-0.5792840421199799
204.68923871420003,0.3299185872077942
204.7730271114,0.16251111030578613
204.85681348839998,-0.07880946397781366
204.94059986359997,0.7777625679969787
205.024386237,-0.8500952363014221
205.10817258300003,0.4574362874031067
205.19196053339996,-0.9818128705024719
205.27574830560002,0.11864359378814701
205.3595317978,0.7555961370468139
205.44331829059996,-0.5211651325225829
205.52710465299998,0.29198682308197016
205.61088892840002,-0.2758024454116821
205.6946774216,0.2523174285888672
205.7784637642,-0.29977270364761355
205.86225022039997,0.41545485258102416
205.94603651580002,0.020709311962127684
206.02982274240003,-0.42956790924072263
206.113606784,0.9265913486480712
206.1973958464,-0.5086865663528443
206.28118206879998,0.1597845435142517
206.36496858640004,0.5929560422897339
206.44875492500006,0.4000173807144165
206.5325393384,-0.031487071514129675
206.61632776599998,0.6597984552383422
206.70011154879998,0.29492185115814207
206.78389993000002,0.6009040594100952
206.86768765800002,-0.040607047080993615
206.9514732602,0.7223875761032105
207.03525973280003,0.25504977703094484
207.119046203,0.1634538650512695
207.2028325962,-0.19810401201248165
207.2866171092,0.6064542412757874
207.37040274860001,-0.4505429744720459
207.45419188199998,0.634032154083252
207.53797827380004,-0.28304433822631836
207.62176455099998,0.24560259580612182
207.70555168480004,0.29596505165100095
207.78933747339997,0.11068398952484124
207.8731239482,0.1677897691726684
207.95691017679997,0.3083817243576049
208.0406966434,-0.1372586131095886
208.1244830692,0.33602662086486806
208.20826957219998,0.10776669979095459
208.2920558804,-0.25391552448272703
208.3758398526,0.11390566825866695
208.45962874399999,-0.25946048498153684
208.54341518820002,-0.016381454467773438
208.627201384,0.17268028259277338
208.71098788520004,-0.20668653249740596
208.79477570260002,-0.12993018627166744
208.87856075120004,-0.11284425258636477
208.9623471076,-0.05953493118286128
209.04613365960003,-0.5607913732528687
209.12992283620002,0.024174118041992182
209.21370404179999,-0.4219300866127014
209.29749281080004,0.2522199511528015
209.3812753632,-0.19381083250045772
209.46506569980002,-0.36223289966583244
209.54885221080002,-0.12249219417572013
209.63263798960003,-0.18358432054519652
209.71642499920003,-0.012349891662597619
209.8002088862,0.08774456977844236
209.95102494000002,-0.49190632104873655
210.03481338400002,0.11298828125000002
210.1185973302,0.10761064291000366
210.2023862768,-0.477675724029541
210.2861727286,0.27681832313537597
210.369959083,-0.21770334243774414
210.45374560660002,0.0046455025672912705
210.53753421359997,0.254088830947876
210.62131846300002,-0.04605447053909302
210.70510467280002,-0.15424710512161255
210.78889129199996,0.5219482421875
210.87267770979997,-0.13698818683624264
210.95646414339998,0.027474355697631837
211.040250423,0.2989356994628906
211.1240362406,-0.007473707199096702
211.20782077860002,0.14440960884094234
211.2916075096,0.7716021537780762
211.37539632360003,0.07427501678466795
211.4591774378,0.38105447292327876
211.54296982440002,0.2375000953674316
211.626755086,-0.24731070995330812
211.7105425012,0.3991695404052734
211.7943284062,0.14610943794250486
211.87811480560003,-0.029657244682311977
211.98871307099998,-0.09176836013793943
212.11271671159997,-0.06619637012481687
212.1965035098,0.44194257259368896
212.2802898036,-0.048651123046875
212.36407642260002,-0.053589916229248025
212.44786262440002,0.39786107540130616
212.53165092839998,0.2983312368392944
212.6154330512,0.0560293674468994
212.69922205260005,0.19130623340606687
212.78300841140003,-0.18053189516067503
212.8667924994,0.3175655126571655
212.9505790192,-0.03417949676513674
213.03436519459996,-0.4254921317100525
213.11815410460002,0.1991512060165405
213.2019401562,0.182304573059082
213.28572764,-0.2492494702339172
213.36951101559998,-0.10832209587097164
213.45329994020003,0.005236768722534162
213.5370863862,-0.00463330745697024
213.6208728656,-0.16654779911041256
213.70465906680002,-0.2204006314277649
213.78844598739997,-0.16610691547393794
213.872232153,-0.2060006737709045
213.95601843600002,-0.2830918431282043
214.03980520600004,-0.07988629341125482
214.12359146080001,-0.2581551313400268
214.2073780656,-0.16984448432922358
214.2911644592,0.09978773593902586
214.37495105780005,0.04103055000305173
214.45873735360001,-0.0033825874328613156
214.5425238426,-0.20744671821594238
214.62630962499998,-0.07722014188766477
214.710097485,0.18292701244354242
214.7938831258,-0.05019487142562866
214.87766696600002,-0.1272263646125793
214.96145355919998,0.1359509944915771
215.0452425684,0.14416158199310294
215.1290290206,-0.006626176834106439
215.2128155076,0.12604370117187497
215.29660189279997,-0.10245609283447266
215.38039032659998,-0.19048057794570922
215.4641748604,0.13195190429687495
215.54795709279998,0.1850393056869506
215.6317478216,-0.05995554924011228
215.71553129360004,0.191242241859436
215.7993184172,0.04189724922180176
215.8831071014,-0.24788329601287842
215.96689353320002,0.22438073158264155
216.0506800832,-0.047258186340332
216.1344635712,0.15815670490264888
216.21825363480002,0.02053997516632079
216.32885108420004,-0.11105318069458008
216.4528550382,0.12579836845397943
216.5366423978,-0.17097141742706295
216.62042797100003,-0.0923431634902954
216.7042144358,-0.1892487287521362
216.7880004486,-0.19221208095550535
216.8717879412,-0.07721509933471678
216.9555738906,-0.2705191969871521
217.03935876980003,-0.2627050876617431
217.1231444998,-0.21908435821533195
217.2069331904,-0.18015165328979488
217.2907197402,-0.13678051233291622
217.37450620700002,-0.239679741859436
217.4582926732,-0.2329637765884399
217.5420791154,-0.16506228446960447
217.62586567140002,-0.2477995634078979
217.70965368400002,-0.41084383726119994
217.79343863499997,-0.18398146629333487
217.87722506279997,-0.275297486782074
217.96101151960002,0.009704041481018059
218.04479459460003,-0.2729112148284911
218.12858450519997,-0.41250430345535277
218.2123709416,-0.006534147262573219
218.2961571328,-0.36635962724685667
218.3799438478,-0.10520446300506592
218.4637283286,-0.24927896261215204
218.547516726,-0.28821985721588134
218.6313032558,-0.03623493909835816
218.71508975080002,-0.47269928455352783
218.79887739940006,-0.0654608368873596
218.88266264119997,-0.1938307881355285
218.9664492276,-0.39350008964538574
219.050232516,-0.2536321759223938
219.1340216744,-0.20886570215225211
219.2178091276,-0.047472548484802236
219.3015920684,-0.3374766111373901
219.38538203439998,-0.24174362421035767
219.4691682056,-0.17028375864028927
219.55295448880003,-0.12033466100692744
219.63674106960002,0.09031677246093747
219.72052755680002,-0.16378268003463745
219.8043114352,-0.2789659857749939
219.8881004734,0.12499866485595701
219.9718870092,-0.3768607258796692
220.0556709038,-0.08266007900238038
220.1394585466,-0.036003756523132334
220.2232464146,-0.368017303943634
220.3070329972,0.04232269525527951
220.39081944159997,-0.2970183491706848
220.47460651199998,0.0046023368835449024
220.55838973600004,-0.05902471542358394
220.64217891660005,-0.06742306947708125
220.72596341500002,-0.149237322807312
220.809752061,-0.16043626070022582
220.893538039,-0.04671007394790646
220.9773221434,0.07138223648071285
221.0611106508,-0.18608555793762205
221.14489846840002,-0.10474102497100826
221.22868412099996,-0.012136781215667719
221.3124707766,0.0059681296348571816
221.39625729200003,-0.07042899131774896
221.4800437768,-0.03513652086257933
221.563830156,-0.375525140762329
221.64761678719998,0.22386991977691645
221.73140103240002,-0.16518415212631227
221.8151897918,-0.14478470087051393
221.89897624640003,0.10663003921508787
221.982758462,-0.04795005321502682
222.06655145940005,0.03447904586791992
222.1503357778,0.12507140636444086
222.30115143079996,-0.37268043756484986
222.38493788559998,0.058778142929077126
222.4687217742,-0.12309662103652952
222.55251093639998,0.01383538246154784
222.6362973702,0.2838536500930785
222.72008198540001,0.14690879583358768
222.8038704558,-0.36468834877014156
222.88765704240004,0.15142960548400877
222.97144336259998,0.009873199462890581
223.0552298962,0.2827040910720825
223.1390164786,0.07804563045501707
223.2228033482,-0.07288286685943604
223.306589009,0.1311972141265869
223.3903734938,0.202667760848999
223.47416242,0.1338318824768066
223.5579489618,-0.2577828526496887
223.6417352822,-0.019488382339477563
223.72551959000003,-0.09790461063385006
223.80930840220003,0.06860296726226804
223.89309237839998,-0.1410163044929504
223.97688142880003,0.12329438924789429
224.0606673626,-0.10018271207809445
224.14445381039997,-0.005199134349822987
224.2282410626,0.02355839014053345
224.3120274784,-0.284219765663147
224.3958140178,-0.25054792165756223
224.4796005232,-0.031860101222991974
224.56338444,0.09180011749267573
224.6471734824,-0.10867063999176022
224.730960047,-0.09316403865814205
224.81474654779998,-0.15389958620071406
224.89853437359997,-0.3487182974815369
224.982319534,-0.16178461313247677
225.06610349400003,-0.027037847042083785
225.1498925908,-0.06894799470901489
225.2336791774,-0.059826374053955064
225.31746577820005,-0.2731397092342377
225.40124961220005,-0.20616796016693112
225.4850386018,-0.10526232719421384
225.56882523120004,-0.3095752239227295
225.65260908080003,-0.1506630301475525
225.73639811879997,-0.2166896820068359
225.8201846788,-0.3091627001762389
225.9039712656,-0.13356167078018186
225.98775306740004,-0.033366811275482175
226.07154424200002,-0.2687276303768157
226.15533079600004,-0.23251274228096003
226.23911484500005,-0.26005451679229735
226.32290372440002,0.09703474044799802
226.4066903294,-0.22472147941589352
226.4904742856,-0.257625389099121
226.6412927668,-0.10736530423164373
226.72507910099998,-0.3565075993537902
226.80886456439998,-0.3122622311115265
226.8926519628,-0.14557260274887085
226.97643906160002,0.2149742364883423
227.06022519100003,-0.1911108136177062
227.14401173920004,-0.35385708808898925
227.22779834739998,-0.1061867237091064
227.31158401059997,-0.2140681982040405
227.39537131560002,-0.16268104314804074
227.4791578284,-0.22609724998474118
227.5629443868,-0.08617304563522335
227.64673094880004,-0.18264070153236384
227.73051745599997,-0.22381028532981867
227.81430397540004,-0.28134341239929195
227.8980854494,-0.06432816982269282
227.98187380219997,-0.09703143835067743
228.06566379639997,-0.3137955069541931
228.14944637259995,-0.018251776695251465
228.233236546,-0.17888351678848263
228.31702318359999,-0.07897169589996342
228.40080960159997,0.0810198187828064
228.4845961206,-0.17201769948005674
228.5683827322,-0.19792039394378652
228.65216923120002,-0.07290450334548944
228.7359557236,-0.217205536365509
228.81973961879999,-0.06573730707168579
228.9035300948,-0.18788698315620417
228.98731549560003,-0.44956826567649844
229.0711018972,-0.1553916215896606
229.1548884856,-0.11665089130401611
229.238675097,-0.2896208822727203
229.32245887200003,-0.18186911940574638
229.40624809100004,-0.3298740327358246
229.49003459800002,-0.23876362442970275
229.57382110700001,0.05655137300491333
229.65760778560002,-0.2699595332145691
229.74139424620003,-0.13915014266967768
229.8251781794,-0.03588186502456664
229.90896594,-0.24535016417503352
229.9927532996,-0.12624428272247312
230.07653733060002,0.13837759494781493
230.160326953,-0.16884745359420775
230.24411346399998,-0.13201099038124084
230.32790009320001,-0.0281547665596008
230.4116865642,0.00038387775421144246
230.4954731218,-0.03384275436401368
230.57925955399998,0.03261853456497192
230.66304628100002,0.148144257068634
230.74682845040002,0.27566667795181277
230.83061924840004,-0.1677111387252807
230.914405811,0.15982450246810911
230.99819238700002,0.39258642196655275
231.08197882739995,-0.18518887758255
231.1657655178,0.2723850250244141
231.249549382,0.1973545908927917
231.3333385258,-0.1741782426834106
231.41712498419997,0.33163599967956536
231.50091161979998,0.1285744190216064
231.5846976144,0.036182725429534886
231.6684854196,0.2752108573913573
231.75227121899997,0.3097964286804199
231.8360578744,-0.008088171482086159
231.9198404004,0.09314193725585931
232.0036307382,0.22063187360763545
232.0874174734,-0.05258849859237665
232.17120177720003,0.1323593139648437
232.2549906242,0.09982637166976925
232.33877718440004,0.04775799512863156
232.422561661,0.3691359519958496
232.5063502944,0.28482997417449946
232.59013680939998,-0.007827806472778316
232.67392343299997,0.14536792039871213
232.7577099786,0.043039619922637926
232.8414964516,0.0984488487243652
232.9252830114,0.18625134229660034
233.009067069,-0.10650805234909055
233.09285608919998,0.08219097852706905
233.17664270600002,0.44194390773773196
233.26042937420002,0.2801266074180603
233.34421585680002,-0.08583011627197262
233.42800228700003,0.004584240913391119
233.51178890420002,0.21662719249725337
233.5955754642,0.03234152793884276
233.67936215240002,0.10269420146942136
233.76314854780003,0.16242809295654295
233.8469351912,-0.166544759273529
233.9307217818,-0.0903463006019592
234.01450858560003,0.4651226043701172
234.09829462959996,0.05962967872619631
234.1820815092,0.016363000869750993
234.26586801419998,0.14038722515106197
234.349654625,-0.1260151386260986
234.4334411018,-0.041287803649902345
234.51722775160002,0.01429444551467898
234.6010142998,0.048725032806396486
234.68480089620002,0.29817531108856193
234.76858739080004,0.12098242044448851
234.8523697604,-0.10708616375923156
234.93616060060003,-0.3334201216697693
235.01994718960003,0.20284242630004878
235.10373372540002,0.48280843496322634
235.18751766279996,0.39580483436584474
235.27130684959997,0.08120440244674683
235.3550934688,0.24808906316757198
235.43887990880003,0.18994984626770017
235.5226628576,-0.07291870713233946
235.6064531284,0.20885683298110963
235.69023965839997,0.2326234340667724
235.7740262368,0.34962613582611085
235.8578127622,0.2934818387031554
235.94159937939997,0.05705006122589109
236.0253859556,0.3656299114227295
236.10917255240003,0.046626698970794675
236.19295907999998,-0.10405358672142026
236.2767437256,0.2721561193466186
236.36053238760002,0.15896426439285277
236.44431882140003,0.3484002351760864
236.52810546700002,0.21558023691177364
236.6789230854,0.2181069612503051
236.7627070616,0.13462394475936884
236.8464944212,-0.09270642995834352
236.93028098520003,0.21560274362564086
237.01406758020002,0.6290642619132996
237.0978542666,-0.1330337345600128
237.1816407108,0.16723793148994442
237.26542729940002,0.40489070415496825
237.349213904,0.13090177774429318
237.4330005658,0.14232752323150633
237.51678708540004,-0.3062836349010467
237.60057360700003,0.39977949857711786
237.6843602284,0.17846356630325316
237.76814664160003,0.038058841228485116
237.85193256739998,0.220573353767395
237.9357206876,-0.10500397086143491
238.0195065498,0.3028121113777161
238.10329145180003,0.31143649816513064
238.18707969840003,-0.11967251896858211
238.270866243,0.12392618656158445
238.3546463106,0.13661297559738156
238.43843955820003,0.2555912852287292
238.522226021,0.3586375951766968
238.606010068,-0.003459000587463379
238.6897992184,0.09588824510574337
238.77358590219995,0.28650126457214353
238.8573724888,0.002467501163482677
238.94115944380002,-0.0005558490753173717
239.02494524500003,0.3528924822807311
239.10873091399998,-0.05646178126335144
239.19251882900002,0.17016146183013914
239.27630280939997,0.22484587430953976
239.360089093,-0.09942603707313533
239.44387929459998,0.19943166971206663
239.5276651694,0.2669008016586304
239.61145176620002,0.012953913211822548
239.6952384482,0.12009031772613521
239.77902500199997,0.2680083870887756
239.862811487,0.14642734527587883
239.9465981834,0.11326123476028445
240.0303840862,0.03682292699813842
240.1141721378,0.17953435182571406
240.1979603826,0.10108253955841058
240.2817445562,0.09551777839660641
240.36553113680003,0.08514521121978755
240.44931777200003,0.00945442914962768
240.53310108300002,0.2886004209518432
240.616890933,0.1905751705169678
240.70067486439999,-0.0196563482284546
240.78446464360005,0.10400302410125728
240.868250638,0.2253227591514587
241.01906761740003,0.2359426617622375
241.10285323120002,0.23447026014327998
241.186639887,0.1937524795532226
241.27042638019998,0.40084328651428214
241.3542104054,0.050596773624420145
241.4379996652,0.0913135945796966
241.52178383500004,0.5608273565769195
241.60557019360004,-0.07124227583408353
241.6893594862,0.08437759280204768
241.77314594040004,0.5438115298748016
241.85693178000002,0.3990414202213287
241.9407203056,-0.30757189393043516
242.02450587080003,0.5116662502288818
242.10829248800002,-0.18482877016067498
242.1920765012,0.2724293529987335
242.2758667572,0.3400094211101532
242.35965232300003,-0.0974355340003967
242.4434388606,0.13538751006126404
242.5272256568,0.72285897731781
242.6110120908,-0.18783132433891292
242.69479862460003,0.1033450037240982
242.7785853414,0.3903754949569702
242.86237210680002,0.16228808760643004
242.94615592239998,0.4795288681983948
243.02994527380002,-0.028180313110351518
243.113727879,0.5613299965858459
243.19751816199997,0.06136077642440797
243.28130499520003,0.5050897479057312
243.3650940394,0.13951990008354181
243.44887826580003,-0.020497199892997742
243.53266489900003,0.31991890072822565
243.61645144280004,0.21110593080520626
243.70023814739997,-0.0114219546318054
243.7840247486,0.5313080012798309
243.8678108162,0.043773108720779406
243.95159857460004,0.21096670627593989
244.04879053680003,0.5524924218654632
244.1862005678,0.02476568818092347
244.2699871992,0.6978798925876617
244.35377367,-0.1730070859193801
244.437560385,0.16650539040565487
244.5213470022,0.5132830798625945
244.605131857,-0.07128922641277313
244.6889177296,-0.08745687901973723
244.7727068408,0.8066851317882536
244.8564929514,-0.11656851768493652
244.9402801526,-0.07114468514919282
245.02406667780002,0.7667946100234986
245.1078529574,0.2026974081993103
245.19163998520003,-0.17671209871768948
245.2754265784,0.36158726811409
245.3592106048,0.1685478687286376
245.44299988360004,-0.07726658582687376
245.52678651260004,0.3967877566814422
245.6105731664,-0.18355002105236054
245.6943597042,0.38922629952430726
245.77814639620001,0.5663508892059326
245.86193294039998,-0.16087630093097685
245.9457196754,0.245290195941925
246.02950627200002,0.24988139867782588
246.1132928688,0.020528563857078585
246.1970794718,-0.018473863601684563
246.28086623919998,0.368375015258789
246.36465276959999,-0.07159885764122007
246.44843879620004,-0.012426474690437278
246.5322267318,0.2677046000957489
246.616012748,0.023036193847656223
246.6997999494,-0.0801436245441437
246.78358597460002,0.2467875480651855
246.8673726076,0.041188818216323794
246.95115808179997,-0.10890684425830839
247.03494585840002,0.09277426600456232
247.118732524,0.044582921266555796
247.2025162666,-0.18309976458549498
247.28630330259998,0.2860158681869507
247.3700923794,-0.40841193199157716
247.45387904140003,0.15416035056114194
247.53766573759998,0.2890039086341858
247.621452361,0.09367495179176333
247.70523888460002,-0.3418909162282943
247.7890255588,0.5827764570713043
247.8728102142,0.03378632962703707
247.95659895120002,-0.2241569548845291
248.04038545880002,0.19963273406028748
248.12417220560002,-0.06497695446014404
248.207958827,-0.23119343817234034
248.2917450862,0.16137788295745842
248.3889378622,0.27546554803848267
248.52634806399996,-0.15346963107585904
248.61013479140001,0.37945676445960996
248.6939214308,0.22681643962860107
248.77770858500003,-0.09722787141799924
248.8614940584,0.29821676015853876
248.94528204059998,-0.23624904155731197
249.02906803540003,1.0153336644172668
249.112856461,0.189793860912323
249.1966413184,-0.19849658012390137
249.28042793120002,0.2584733426570892
249.3642120158,-0.10672432780265809
249.44800117980003,0.38815746307373045
249.53178789459997,0.5297326385974884
249.6155745486,0.0986232429742813
249.69936127340003,0.27464200258255
249.7831478048,0.49538828134536744
249.8669345662,-0.21744366288185119
249.9507212344,0.2808362305164337
250.10153960380003,1.158043670654297
250.18532069900002,-0.7674214392900467
250.26911040800002,0.25928673148155207
250.35289705200003,0.03446221351623535
250.4366837278,0.6529171407222748
250.52047030020003,0.6344149112701416
250.60425709860002,-0.29560641050338743
250.6880434388,0.6186496019363403
250.77183042040002,-0.5162785291671753
250.85561447160003,1.3839599609375
250.9393985356,-0.9737827777862549
251.02318764280002,0.9696396470069886
251.106977155,-0.31102601289749154
251.1907630662,0.36607122421264643
251.27454973620002,0.37432809472084044
251.358337041,-0.4858172297477722
251.44212376599998,0.9144029974937439
251.5259083706,-0.18566120266914365
251.6096970568,-0.22951209545135498
251.6934836842,0.1665816366672516
251.77727216040003,0.5602289319038392
251.86105672120001,-0.42283621430397034
251.9448439994,0.2940708994865417
252.0286311026,-0.14359580874443054
252.11241706639998,-0.10918198227882385
252.1962036104,0.7389787554740905
252.2799903312,0.25188403129577636
252.3637769996,-0.17497299313545223
252.4475637224,-0.14475139975547785
252.53134794060003,-0.1398992300033569
252.61513691200003,0.10385124683380129
252.6989236244,0.23560987710952755
252.7827104344,-0.3375071048736572
252.8664942866,0.28098100423812866
252.95028306460003,0.3434112310409546
253.0340709862,-0.5875577449798584
253.11785697800002,0.15365312099456782
253.20164307680002,0.016723692417144796
253.2854309674,0.3452100992202759
253.36921755560002,0.269999885559082
253.45300382300002,-0.108425498008728
253.5367907412,-0.541837340593338
253.6205753928,0.2651817202568054
253.70436150979998,-0.13348903656005856
253.7881505418,-0.09413553476333618
253.87193709400003,0.708539891242981
253.95572388780002,-0.3723835706710815
254.03951055160002,-0.0025974988937378153
254.1232972136,0.4449796199798584
254.20708122600004,-0.08484334945678706
254.2908704944,0.3655344009399414
254.44168656460002,-0.2642591476440429
254.52547416060003,0.258141028881073
254.60925993720002,0.4560017704963684
254.6930466152,-0.014408028125762907
254.77683280100004,-0.07338232398033145
254.86062007959998,0.42425374984741204
254.9444090604,0.009208697080612182
255.02819326280002,0.5335201025009155
255.111980055,0.2269272685050964
255.19576801499997,-0.5400459885597229
255.2795532396,0.41398767232894895
255.36334010520005,0.09332431554794308
255.44712671200006,0.3640554308891296
255.53091242040006,0.5099693417549134
255.6147001032,-0.2643595814704895
255.69848681760004,0.08773019909858701
255.78227352660002,0.09028321504592893
255.8660602468,-0.08586704730987546
255.949844423,0.2418660759925842
256.03363361140003,-0.37308350801467893
256.11742029799996,0.2168790698051452
256.2012070492,0.28835873007774354
256.28499371320004,-0.15622319579124455
256.3687803936,-0.16600084304809565
256.4525670778,0.47536561489105217
256.5363538328,-0.06370909214019774
256.6201404584,0.00223824977874752
256.70392718920004,-0.10885740518569942
256.7877150984,-0.2257731676101684
256.8715006652,0.4347886562347412
256.9552871384,-0.07023783922195434
257.03907192220004,-0.08681080341339109
257.1228606592,0.3317245125770569
257.206647402,-0.1257423043251037
257.29043402340005,-0.14635448455810543
257.37421836640004,0.08974460363388062
257.4580074872,0.572748339176178
257.54179420080004,0.1112725257873535
257.6255822498,-0.1198340117931366
257.70936822,0.24805357456207272
257.7931542,-0.3960190206766129
257.8769403082,-0.05906637310981751
257.9607283642,0.0571083664894104
258.04451435220005,0.2719605207443237
258.1283010674,0.3597208142280578
258.21208780040007,0.0052137374877929575
258.29587443959997,0.11153017282485962
258.37966118080004,0.026198673248290998
258.46344787099997,-0.0012456893920898492
258.54723463240003,0.11993807554244995
258.63102128260005,-0.10931034088134765
258.7148080178,-0.008255594968795755
258.79859275260003,-0.08245198726654049
258.8823808162,0.0803715765476227
258.9661687922,0.15383249521255493
259.04995480319997,0.09876583814620973
259.1337425148,0.040858781337738
259.2175283202,-0.22654345631599426
259.30131542180004,0.004984980821609519
259.3851016624,0.10000299215316766
259.4688884156,-0.04474836587905885
259.5526725746,-0.1510529041290283
259.6364617618,-0.006806004047393781
259.72024860659997,0.0273342490196228
259.8040351976,-0.13836299180984496
259.887822024,-0.08059230446815491
259.9716060612001,-0.21767614483833303
260.05539535180003,-0.01806584596633911
260.13918204980007,-0.16923563480377196
260.2229688908,-0.11184039711952207
260.306754808,-0.11438434720039367
260.3905428638,-0.2501272737979889
260.47432665480005,-0.13135979771614076
260.55811502960006,-0.05583885312080379
260.64190044020006,-0.4861214101314545
260.72568651200004,-0.12061499953269958
260.8094761034,-0.01761860847473142
260.893262625,0.10233193635940548
260.97704920779995,-0.45745316743850706
261.06083603860003,-0.1724994540214538
261.14462281220005,-0.1455967545509338
261.2284094924,-0.04705483615398408
261.3121961664,0.062287393212318444
261.3959829986,-0.6217443108558655
261.4797687920001,0.14011749625205994
261.563556408,-0.3751489996910095
261.6473430212001,0.22098302841186523
261.73112790500005,-0.5084064990282059
261.8149165808,-0.04667324125766752
261.89870332820004,0.14023762345314017
261.9824899274,-0.18154085874557496
262.066274098,-0.3360291272401809
262.1500635276001,-0.4746456563472748
262.2338501728001,0.26494888663291927
262.3176367574,-0.44148851931095123
262.4014239524,0.019000685214996305
262.4852100262,-0.5740386992692947
262.5689975772,0.1925279796123504
262.6527833966,-0.31082390546798705
262.73657051600003,-0.10929407477378839
262.82035734320004,-0.2532157003879547
262.9041420594,-0.28572925627231593
262.9879306444,-0.030321332812309254
263.0717174648,-0.7218471467494965
263.1555019846,-0.21033579707145686
263.23928595020004,-0.41245248913764954
263.323077682,-0.7177667379379271
263.4068643602001,-0.7463374376296997
263.49064868880004,-0.3824924021959305
263.57443796880005,-0.5285261809825897
263.65822448020003,-0.28375999331474305
263.74200948000004,-0.1646104663610458
263.8257981414,-0.4092615693807601
263.90958683179997,-0.4668298035860062
263.993371571,-0.3536168158054352
264.07715841600003,-0.44280263781547546
264.1609451028,-0.4440930008888245
264.2447318192,-0.22200960218906393
264.3285184626001,-0.32507654428482047
264.4123052952,-0.10346000418066972
264.496092193,-0.4566569358110428
264.57987887340005,-0.5667888462543488
264.66366538660003,-0.25633242726325983
264.7474522538,-0.4117118909955025
264.8312390748,-0.0923542946577072
264.9150257768,-0.5250617742538451
264.9988123882,-0.27257495075464244
265.0825992596,-0.2040415078401565
265.1663860128,-0.20498120635747905
265.25017270480004,-0.42081019580364226
265.33395943,-0.6448484003543854
265.41774619160003,-0.1898157216608524
265.5015322514,-0.19746778905391688
265.5853204228,-0.41318137645721437
265.6691064378,-0.42476986050605775
265.75289077800005,-0.189390779659152
265.8366799872,-0.35150713622570035
265.9204667934,-0.44420492053031924
266.004255569,-0.44192001223564137
266.0880396168001,-0.3562919557094574
266.1718276662,-0.2613008826971054
266.2556137846001,-0.3344246447086334
266.3393978934,-0.3936445415019989
266.4231872382,-0.32403684258460996
266.50697403879997,-0.3487008839845657
266.5907608492,-0.1527494400739669
266.67454745580005,-0.6478050827980042
266.75833646980004,-0.13641634881496426
266.84211867839997,-0.5259904861450195
266.9259078808001,-0.4752253174781799
267.0096945064,-0.2806975781917572
267.0934812432,-0.25481908619403837
267.17726806780007,-0.6674609184265137
267.261055092,0.03487641215324399
267.3448412514,-0.7034313440322875
267.4286283014,-0.2747002512216568
267.51241504320006,0.02522924840450284
267.59620188959997,-0.5335443794727325
267.6799884946,-0.365132674574852
267.7637754148001,-0.09262693524360659
267.8475595008,-0.6851222038269043
267.93134716640003,-0.5343057155609131
268.0151356366,-0.34345040917396547
268.09892241020003,-0.3527073055505752
268.182709198,-0.5820038199424744
268.26649600060006,-0.3343125462532043
268.35028179980003,-0.7871055722236633
268.4340704066,0.1719035238027572
268.5178561934,-0.48081824779510496
268.60164240160003,-0.8713275492191315
268.6854304024,0.004022541642189015
268.76921659400006,-0.5626678943634034
268.8530033556,-0.34543670415878297
268.9367901334,-0.5242070019245147
269.0205767952,-0.43762109279632566
269.10436369320007,-0.40144473910331724
269.18815044660005,-0.5720578551292419
269.27193721419997,-0.8062901377677918
269.35572391880004,-0.10116156339645384
269.43951073520003,-0.04189838767051697
269.52329738879996,-0.6120848715305328
269.6070842946,-0.776146125793457
269.69087063940003,0.002175551652908321
269.7746559564,-0.14073114395141598
269.85844456920006,-0.5857825398445129
269.942231764,-0.9125018119812012
270.0260154616,-0.1367173850536346
270.10980496,0.3196031510829925
270.19359115360004,-0.3806043744087219
270.2773784726,0.03818581104278562
270.3611652526,-0.40438820719718926
270.4449520466,0.18845393657684323
270.52873881600004,-0.16045123338699338
270.6125256692,-0.0517419099807739
270.6963089962,-0.4386355340480804
270.7800992046,-0.13323514461517333
270.86388594960005,-0.12307424843311306
270.9476727828,0.22394301295280447
271.0314589706,-0.17141708731651312
271.11524617120006,0.05682534575462341
271.19903370400004,-0.2936050832271576
271.28281991819995,-0.4951900839805603
271.3666065982,0.2938500523567199
271.45039338020007,-0.4272122383117676
271.5341801846,0.038804674148559565
271.6179670704,-0.13459393382072443
271.7017538378,0.013862335681915338
271.78553788380003,0.31991946399211885
271.8693274136,-0.5919247269630431
271.95311299540003,0.3638055086135864
272.0369008594,-0.7018269896507263
272.12068538720007,0.7885793030261994
272.20447387400003,-0.31851046085357665
272.28826194760006,0.0664342790842056
272.3720480054,0.33361386954784394
272.45583245160003,-0.030631315708160377
272.5530275734,-0.019682916998863244
272.6904379854,0.6264873027801514
272.77422460440005,-0.133930104970932
272.8580114184,0.39207965731620786
272.941798268,-0.19761092960834498
273.02558615419997,0.18209350109100342
273.1093717136,-0.12772223353385925
273.1931563552,0.17522713243961335
273.27694564560005,0.166218638420105
273.3607323236,-0.13981735706329346
273.44451898140005,0.3944757580757141
273.52830583060006,-0.06830205321311951
273.61209001260005,-0.13028198182582856
273.69587849059997,0.4183339595794678
273.77966734200004,0.3403893113136291
273.8634503332,0.10991570949554444
273.9472398436,-0.1327723145484924
274.0310260112,0.5875851452350617
274.11481322640003,0.31607123613357546
274.1986002624,0.17821603715419765
274.282387083,0.008957275748252853
274.36617385460005,0.7360123038291931
274.44996063860003,0.30357289016246797
274.5337473938,0.5636413037776947
274.61753418800004,0.40332216024398804
274.7013211936,0.1788877062499523
274.78510716600005,0.3953263647854328
274.86889467620006,0.6839926213026046
