time,acc_x,acc_y,acc_z,acc_abs
0.135238697,,,,
0.152002013,,,,
0.16875598,,,,
0.185513479,,,,
0.202269552,,,,
0.219026866,,,,
0.235783967,,,,
0.252541169,,,,
0.269297751,,,,
0.28605467,,,,
0.302811648,,,,
0.319569136,,,,
0.336325637,0.08928379704348172,1.100425470095487,1.1557510614012685,-1.4369849158563308
0.353082849,-0.4875970642861267,1.7458715105277463,0.4386768576848659,-1.1275692074883081
0.369839502,-0.6748309965576644,1.7477456385730172,-0.4689550724400709,-0.45361633334262047
0.386597072,-0.9967230896002705,0.3698602592527807,-0.2832176567638053,0.3094159287071662
0.403353348,-1.8016583464015794,0.4014212082838723,1.3774104398642164,-1.495954351974346
0.420110753,-2.4576451307198326,0.21255553576203795,0.49885004393335264,-0.7854615357101502
0.4368675,-1.706541301819136,0.7214323922584152,0.3828100925989712,-0.6633370825373712
0.453624722,-2.1292253357758546,0.5150467400549198,0.5499096183803639,-1.1453424400756707
0.470381385,-1.8713534155269314,0.2139987440610736,0.19180676916451303,-0.7430340431364263
0.487138639,-1.180940548325482,-0.1728334800501847,0.10006874274752389,-0.3337608013773927
0.503895464,-0.029680656904884466,-0.47809658639990393,0.7044782712152056,-0.4979804891358561
0.520652677,0.7749367890204464,-0.7641851529060194,1.902121749777101,-0.5682698262077468
0.537409239,0.6026085605548162,-1.0401622384239193,1.0999668973375027,-0.33444101248033803
0.554166279,0.8477455072303514,-0.9401181247465485,-0.016950249003979397,0.3914339855891072
0.5709235329999999,1.437135351930864,-0.5926713567055707,-0.9664553807856427,1.0122319825331552
0.587680827,2.115530426229094,-0.05394065837629144,0.4881825362813794,-0.31191822123136703
0.604436931,1.7141444742711722,0.3861086617726131,-0.4206211115472306,0.3991408037765492
0.621194367,2.26867396103932,-0.37103699619813435,0.10490030716607354,0.1952359804692153
0.637951488,1.6398486321491164,-0.5233275158648272,1.2919593767006663,-0.707327135196195
0.654708457,0.7190464579194088,-0.0036696448619836144,0.35627449651323,-0.3061920113091123
0.671465222,0.5341437651353991,0.8919020352272472,0.28027654006378894,-0.17599048621907792
0.688222161,0.2885279741196774,1.1965559504782117,0.8257676114889783,-0.8229694700315878
0.70497921,-0.1776742856104526,1.1763675167457721,-1.4883012544953405,1.1499084345019757
0.721736555,-0.3807095532694721,1.4656053387600743,-2.420829959373139,1.037771824601124
0.7384947850000001,-0.5096006996902074,0.9391077939346378,-0.45195241234778555,-0.24309583234686546
0.755248325,-1.1793155594127303,0.2839178744916305,-0.26154091132908086,0.09535906746690127
0.772007064,-2.2799650369219413,0.24554859450213146,-0.3606281213428731,0.5818616671944338
0.78876453,-2.892283093496806,0.3268809650087176,-0.6243167192877427,0.7138776761678696
0.80550442,-2.1756007432709628,0.4426854900133661,0.4743763318716967,-0.41767272524764226
0.82228154,-2.227969086478935,0.38385929071910513,-0.23441412680722082,-0.08725392220246968
0.839034939,-1.0628933492654042,0.028295788876028703,-2.2746732046526668,1.6427199639939338
0.855792192,0.4939828866257797,-1.0098398057766822,-1.5070306131163693,1.6896802555759112
0.87255144,0.7110855035005591,-1.9600839406699166,-1.0964664427982396,1.4178292115460718
0.889303443,1.128740223906724,-1.6660118484933437,-1.422341910889816,1.8297458165867173
0.906062955,1.1033278219622205,-1.013839861014119,0.3900021281090597,0.12128438534846153
0.922820036,0.35158386405257697,-0.32937184187039964,0.4342696287138278,-0.2300195219814154
0.939573698,0.8803726690398084,0.669716971969762,-0.9688209327999584,1.064813424841725
0.956333749,2.3814660765737705,0.8838421419928975,-0.22561498557198792,0.542010279846453
0.973090942,3.33995109646788,0.14478096812926045,1.0886854878196697,-0.8589683455930028
0.989848266,3.015349255094181,-0.5593926060480242,-0.005980386610790779,-0.05581984091595303
1.00660437,2.2989805920377555,-1.2688342412166778,-0.7457198155963636,0.9385677563524362
1.023361909,1.374714841947852,-1.6698333235569867,-0.39450600915730594,0.7674527106393566
1.040118825,-0.06141887432089423,-1.146991886755714,-0.09547983719025877,0.3597019892881035
1.0568759170000002,-0.8411180749827241,0.026078296892116593,0.49203944504270203,-0.6130351568360116
1.073632315,-0.9094614692046938,0.9677190665381589,1.1996720908687422,-1.5859579895537985
1.090389762,-1.0229857729381884,1.139084555704679,1.8598154461546168,-2.264063256310642
1.107146589,-1.0501160138484362,0.8989713093865038,1.1932956243929218,-1.636415488135824
1.123904859,-0.24631853329187445,0.46530507707467816,0.2953129361963306,-0.41665450108682905
1.1406596720000002,-0.14319163337609983,0.3195847821994287,0.34580447800919994,-0.3650841607279826
1.157417474,-0.4932027259819725,0.614054308053917,-0.3712286677953045,0.12752031058444366
1.174174636,0.1288808597713933,1.0312365829903778,-0.7020074261817559,0.6298742924465155
1.190929255,0.44607528475177816,0.844947514855999,0.6782692044514014,-0.45898405619932503
1.207690771,0.03376668742364708,0.9813462238756703,0.17636068774569796,-0.3923358137284334
1.2244454,0.27498431789825745,0.9622558238325866,0.34277728299792065,-0.6225800882172899
1.241202601,-0.11330768299060569,0.27921386883476346,0.6992218806163768,-0.7539421944936736
1.257959419,-0.18541225593741484,-0.19917102860643354,-0.5587585598146969,0.5898297419608963
1.274716325,0.30367003415138416,-0.5336469198037788,-0.07923617086690163,0.26546531221868286
1.291473294,0.37779771949261354,-0.9357185342331883,0.016898151396766238,0.32718349160118915
1.308230212,0.4894572689152083,-0.7778606643945735,-0.7414957959380074,0.9706042660247949
1.324987638,-0.05752174475961308,-0.4736724289591858,-0.46251677568460076,0.44949003030491913
1.341744128,-0.11970468798314271,-0.7171476563412373,-0.20099557372983948,0.17079836542965018
1.358501474,-0.1779230855343037,-0.679623983810438,0.5852281986768371,-0.6416653873741524
1.375258148,-1.0326861823423599,-0.3287286018868603,0.7717653929871385,-1.2003707419208332
1.39201536,-1.0656547499127527,0.6199935151686163,-0.36941109223854895,-0.08973006643562761
1.408772084,-0.22267896590222624,0.8379821773675552,0.3235832253838811,-0.34294229239563845
1.425529298,-0.003997423833107666,0.8345984268703864,0.4200525924938969,-0.48113686878501744
1.4422731830000002,0.7894018669621022,1.0318709691502375,-0.07202633355134251,-0.03765229213574458
1.459043255,1.3169239333498524,0.7158613278474565,0.45465673371396426,-0.3358700807508569
1.475799928,0.8085842172999831,0.03565131851464833,0.9279729455759888,-0.43601989486149934
1.492557192,-0.8777781224825804,-0.08172018890477185,-0.8124012006876267,0.5727384321748836
1.509313753,-0.5433769224219586,-0.2965738092895748,-0.9093020387872497,0.7602751772938632
1.526071527,0.4798360731943859,-0.9196057287575906,0.9954254564216095,-0.2845230704169225
1.542827874,0.33369500183139666,-1.1481412555089965,1.0191675701599126,-0.3075534564101568
1.559585157,0.22684264223118125,-0.7041878001876286,-0.5752140567475684,0.7222838715997364
1.5763415870000002,0.6067014768779802,-0.34149544864787534,0.5899935325224813,-0.16293167618878227
1.593101302,0.2518700635270607,-0.21128208362687279,0.7538859179065839,-0.6429494187909671
1.609854181,0.031025038219316747,0.347240864491476,-0.6965749452798579,0.7276990318186018
1.6266129,0.3032086819618809,0.6170462191115802,-0.22103774539694646,0.4437549010815464
1.643370153,0.4080984977017087,0.2949641969244764,0.5149888761099582,-0.3070191996269952
1.660127295,-0.12960619077179844,-0.1517708540425644,0.3444095103718622,-0.3434831435317317
1.6768834190000002,-0.6266728147391575,-0.18530551247844987,-0.9175641954942851,0.5270958238344712
1.6936406940000002,0.33441977469986817,0.08133450353370188,0.39306099226273017,-0.3578912730135911
1.7103978350000002,-0.9559431230836398,0.5262590200491968,1.5269454887858922,-1.6672939227434622
1.727155129,-2.8177035001908837,1.577648286528611,-0.809568424150017,0.14129155909273614
1.7439116200000002,-2.383415920246723,2.122047642864248,-0.5488475045439739,-0.12537437672960106
1.760668517,-2.4253445149281623,0.9825809789735975,2.092031433448465,-2.0446059878742613
1.7774255570000002,-2.4916490328649634,-0.01653734160221539,-0.23255134573619657,-0.055380592868661566
1.794183003,-0.5891159604851995,-0.5675320676530496,-0.7225591826697401,0.4806457106712046
1.81093986,-0.0032715043321511804,-1.0263567297574452,0.9003080325236424,-0.9562150634277485
1.827696666,0.5438040483174352,-0.9393504825188426,-0.567257916415603,0.6496133938343787
1.844453492,1.0548169969129177,-0.5230441626560787,-1.0386594541993692,1.4415653329461184
1.861197582,0.6302679409752227,0.021586573708795315,-0.48946456072657374,0.7100348413371307
1.877967358,0.8986518384218816,0.4105049287024885,-0.44128641174058425,0.6258622065250594
1.894724611,0.7052361368654705,0.0028886848064067655,0.5777713450931146,-0.27382784992757564
1.911481488,0.5522130728700632,-0.6349340064257697,0.7469754300179007,-0.3764746420110538
1.928238549,1.2443460275487435,-0.9940580585709016,0.559604133893363,-0.6732696232391099
1.944995344,1.2555924018740223,-0.6997771212611102,0.6080789172859614,-0.827637869486003
1.961752547,1.6521103296749635,0.18342691940294428,-0.7948517625577505,0.4664684596791587
1.978506331,1.9708070737513923,0.6961628718528554,-0.6075098701192324,0.5280470851566641
1.995269749,1.2003332878826545,0.3507829409005251,-0.13200424313831607,0.5310610217999039
2.012024256,0.6938388173444732,-0.11896969945840019,-0.5421816519190097,0.8194553546645651
2.028780401,-0.32332850733808305,-0.6562880829039323,0.5690304269012953,-0.5251358124952028
2.0455373690000003,-1.0192971281306724,-0.8308487001168579,1.4670565202500578,-1.5170964201773849
2.062294725,-1.1031032646302419,-0.16192274874815143,0.6303818162837473,-0.9656785774705539
2.079050839,-0.8665806074597647,0.6689605929935576,0.06009275971777075,-0.46515928482559155
2.095808173,-0.07207004776883859,1.3084890467850518,-0.07803427642561786,-0.16140021744913524
2.1125653250000003,0.4220064771791839,1.2567541240716735,-0.4539069918454691,0.14305182132206068
2.129322568,0.8939170963392378,0.6202763312425843,-0.7600629121499709,0.7317284988339184
2.1460790490000003,0.8126158325165723,-0.2672352933228892,-0.356901438036054,0.604621056025056
2.162836038,0.16859063488743667,-0.8529741385551055,-0.5487505679957734,0.6118263250262747
2.1795929750000003,-0.2931844351495538,-1.1207072347542302,-0.28843582263313045,0.20164236995575427
2.196351786,-1.2606669176051364,-0.9785194348125517,0.41868476128521515,-0.6945406332041497
2.213106995,-1.5385893641458186,-0.35272341324693074,-0.3696639530798941,-0.07230959149693916
2.22986379,-0.8814563665758678,0.3675916685335516,-0.8906741477733903,0.4368839719880485
2.2466209310000003,-0.6146709136419096,0.6747410199307303,-0.6051733596062352,0.050332023819212895
2.263365073,0.2747130597599543,0.11845598872583445,0.6846312368529691,-0.5526911893168708
2.280134776,-0.15667200184623586,-0.22448222372314217,0.8524266780426608,-0.8479286975671821
2.2968920820000003,-0.48225944564126977,0.11092390080372831,-0.9811923195435234,0.7723491193523496
2.3136487960000003,0.4038532304725027,0.8001225116268497,-1.3364397842901046,1.4992559230359912
2.330406211,0.7526647375805057,1.1197611406361923,0.40112478407141894,0.0663499598574237
2.347162692,0.54627796838372,0.864746167659429,0.11848021718753071,0.1638246227045224
2.363916701,0.5003476795947884,0.2662545712614305,-0.8293985066962991,0.9023062055338869
2.380680108,0.6926431666338506,-0.13727230710259342,-0.020802865930890972,0.2851482597157059
2.397433913,0.7955827955117896,-0.10873109155605416,0.2893578170291349,0.017570680371705893
2.4141906580000003,0.8247245802270322,-0.2007503389440997,0.41327749043406564,-0.18371886283361083
2.430947809,0.6770594637956798,0.041263196579442205,0.601653971756173,-0.3823980662255584
2.447701808,0.130306455512467,0.5500257820246759,0.14360045513395345,-0.13712780134189562
2.464464881,-0.00863163685555421,1.186338711935647,-0.9033639626598161,0.8430687954771318
2.481218186,0.9924081923012005,1.0096567751003362,-0.32982083172590915,0.8406462873118208
2.497975776,0.9946228994500196,-0.08545005690139498,0.8426899671925214,-0.3795820915078586
2.514732735,0.40096214733893004,-1.1944769329952998,0.5786541348021819,-0.4482518504940473
2.531490008,-0.4492107742123019,-1.7633580467509242,0.4356447463958189,-0.5706675143828756
2.548246214,-1.1728730883343375,-1.583021559197322,-0.09204528687508998,-0.13610050647152802
2.5650034070000003,-0.5562600378901675,-0.7255486002226607,0.09697218157578999,-0.11501919443917998
2.5817605780000004,-0.33650756465180526,0.13646497766144214,0.28343307556402014,-0.4198921723784023
2.598517832,-0.11949322393749161,0.7093416995069365,-0.12225459955192862,-0.11123021814897166
2.615274292,0.1415996823535237,0.9826741893616218,0.37668892689711575,-0.3984974884130365
2.632031372,-0.5435803294773391,0.6890080145049472,0.9457732617268688,-1.0959556421569074
2.648792582,-0.36680066116701704,-0.18757571799947362,0.7141609781210612,-0.79063996195864
2.665545686,-0.8769153955597865,-0.9077934791048937,0.33191679108455313,-0.555968907056403
2.682302207,-1.471438876559908,-1.0234895366456325,-0.43586349496282023,-0.18308314182421906
2.6990595,-1.2082664921257338,-0.7038331682618836,-0.6052579793585977,0.1075147328932462
2.715816134,-1.1494107348171325,-0.17018807370411204,0.4409590333390299,-0.784613460787885
2.732573631,-0.79375444666349,0.47697892652300267,0.4151986374254634,-0.793245183514164
2.749330102,0.2526238740272511,0.8189626499949395,0.9464289439726867,-1.0646280116302014
2.7660873350000004,-0.34544271259350257,1.0124561105293832,1.3479229114163942,-1.5502268183191432
2.7828441610000003,-0.12737703899450578,0.8416082181240874,-0.070913083315551,-0.04124188821832965
2.799588383,0.5368151351243873,0.43926902858412975,0.0050453015889117825,0.27254834599208855
2.8163579860000003,0.4512937276030003,-0.03242493612227783,-0.1602669526137382,0.3635834903874266
2.833115138,1.3729403920134218,-0.18676213467400082,-1.7488755442801531,2.1662151559614666
2.849872035,1.8679221760535702,-0.13926302805211646,-1.4375726557490878,2.1627262773092464
2.866629227,1.64378946399421,-0.336287648931636,-0.22655931738167995,0.7749365469078493
2.8833856260000004,1.199529437753489,-0.4715452483366037,0.7748324455877406,-0.25074198248528373
2.9001431340000003,0.5019407327019758,-0.27493292489856686,0.9375540269505311,-0.6786354684909872
2.916900225,0.7397392920324682,0.07457802304652475,-0.1565118816253323,0.35812987630785587
2.933657021,1.1225964139837903,0.2424919245805001,-0.48751409245155664,0.875954377739119
2.950413633,1.0277524769215454,0.21906764454247235,-1.035528258414792,1.3842868100462846
2.96717105,1.890940266941705,-0.17027645458052995,-1.1263125410757766,1.8844899905795722
2.983927773,0.9468019856232631,-0.5351452302385423,-0.3732634957414073,0.7623782187620629
3.000685281,-0.3958053009185257,-0.5049876552414584,-1.2152714054057745,0.9058223188162112
3.0174357400000003,-0.44405370371944364,-0.34728480446730814,-0.36307426492504974,0.11678206096822863
3.034210287,-1.4645264111387333,-0.5407030502569599,1.4120777930158228,-1.8431943536309277
3.0509558510000003,-1.7075369533714666,-0.19114696874105458,1.1022269969363987,-1.754846065882893
3.0677130750000003,-1.2338109769391274,0.38571263604594086,0.9861531409872988,-1.470366006176393
3.0844695040000003,-0.876807194835056,0.792794222771237,-0.036211491351377904,-0.43656811868936335
3.101226574,0.3565478672587838,1.067594037441719,-0.648305551178234,0.6675136664382645
3.117983767,0.37288132438239024,0.760940488293771,-0.0052500711597984195,0.17066595246034041
3.134740776,-0.20150526136661379,0.2719227029301868,-0.4105961170381082,0.24498560426885857
3.151497693,-0.887649682126694,-0.18814873001089846,-0.20252708346000267,-0.2065173997291864
3.168254429,-1.806758022587128,-0.5363516944556089,0.2647967183346139,-0.9290780462995715
3.185011448,-1.32659577980792,-0.4679774750876692,0.338625992046513,-0.7237673003805116
3.201769027,-0.9109345379967373,-0.5008285640518572,1.6517804107427088,-1.669485546055957
3.218525354,-0.9904719832455868,-0.5540520848741807,1.6076150316110507,-1.5972943133566564
3.235286046,-0.39793200100616266,-0.03635223491974558,-0.3617904718975497,0.29514587279850635
3.252035782,-0.12528055897082557,0.3899705727366817,-1.1230617290048135,1.030386195066863
3.2687966160000004,0.45459126895853924,0.3999683987467637,-0.4084540514619877,0.5437135763760128
3.285552995,0.6214089500055321,0.049017273063881615,0.5911905244450659,-0.25934797052363545
3.302310635,-0.03862042823280601,-0.31904594939937336,0.6859720293861363,-0.6397045582367231
3.3190676440000004,-0.5532812318736977,-0.247179040306825,1.0625701073265967,-1.2083140120019473
3.3358243790000004,-1.0243057043568533,-0.012722403627356533,1.1789032132905644,-1.4634375165349276
3.3525809100000004,-0.27270160933593157,0.5623545754101473,0.23189441789575768,-0.3059894546619053
3.3693384280000003,0.33719819155918535,0.8564829085957577,0.33162069195205635,-0.32384502764451467
3.386095194,0.22574754857606347,0.5754560462707945,0.3803244666807723,-0.4179344142343119
3.4028523450000003,0.34163904038814236,0.2623030990451237,-0.023580324509277654,0.004131287017677131
3.4196089570000003,-0.06530980608720661,-0.08037049174245785,-0.4765209478318426,0.4453598186140261
3.43636614,-0.11124602713513959,-0.23605193026602994,0.4018986411225306,-0.31466796489268883
3.453123321,-0.39458098219208226,-0.4343088314659663,1.6591944086841215,-1.6069130076362197
3.536908094,-0.13553059438914045,-0.08601103611816381,0.21301364122339564,-0.24459883387695405
3.553664625,0.111292892719675,0.16511817834155434,0.004491430722525825,0.08382512689913267
3.5704220510000004,-0.21246101129552014,-0.20592311555002077,-0.30991113807393955,0.1645625674532546
3.587178858,-0.15445263630607683,-0.6333405849919903,-1.2850639564061925,1.1483695697056198
3.603936375,-0.05910350742838997,-1.0027161929730746,-0.38290158061607416,0.5857668728259466
3.620692509,-0.9159724752139549,-1.2638559143253243,1.4670489102920132,-0.9986792163094272
3.637449763,-1.78834225516498,-0.9737603100825647,1.8223845980769118,-1.0297606295468562
3.654193731,-1.8660348643345537,-0.06729445128785663,0.9168396577066086,-0.5292016930128004
3.670964188,-0.795900985220307,0.9106476102682419,-0.41320969812847064,0.3047187901238581
3.687720567,0.6039618124995206,1.3911415419535587,-1.0495103275660296,0.9791783018092414
3.704477698,1.382837163897148,0.8237474234050239,-0.9971046023341783,1.1778195592209255
3.721234565,1.121929309213664,-0.23969284999077578,-1.0169874983970384,1.2967421417037084
3.737991911,-0.25910844637424,-1.0820719658793878,-1.0691266808006425,1.3969909216945409
3.754748553,-2.035314794859394,-1.350165316057725,-0.4661097196948914,0.36971749076364274
3.771505765,-1.9863986446967974,-0.15767921112328312,0.8407075962595867,-0.737220113662299
3.788262562,-1.4727867698710566,1.1596407250079486,1.6510370042046636,-1.4670342105115008
3.805019988,-0.23700338921778757,2.097359000378614,0.42406421462588373,-0.21155547667469604
3.821776407,1.036963553581853,2.0370655299588045,-0.7802620620056987,0.6345048239780179
3.838533701,2.054806243724974,1.06994438888134,-1.7681345822546661,1.0907667090348199
3.855290446,2.518963940789851,-0.398714170806966,-1.5228885906527196,1.4078841032806764
3.872047618,1.3404356679355989,-1.7935026747104041,-0.24119530585408083,0.7830993194346444
3.888804261,-0.16916280348606394,-2.0919107834092623,0.4611345289042526,-0.06387886789551134
3.905561331,-1.1138441780851995,-1.170811069576389,1.2613020990241255,-1.2208817329403534
3.922318616,-0.9511621628488806,0.1591965962547238,1.5196524983169124,-1.6889670881565018
3.939055503,0.5078167862209179,1.323888717121533,0.8862064789794546,-1.1655564103262206
3.955831994,1.4583411847232575,1.4361214791728698,0.46234645294840976,-0.6587594752808485
3.972576602,1.6982900366311626,0.6195299461058956,-0.5081018913813385,0.3433230134898365
3.989346113,1.4925224708832785,-0.49570983042602296,-1.2156526885739163,1.0110336119154217
4.006103744000001,0.5693833754125373,-1.3464346575992945,-0.24975837475285384,-0.09490120524684456
4.022859908,-0.6125165695443937,-1.2730677780299091,0.16828293964145968,-0.5388895505727036
4.039604049,-1.037680396767516,-0.4676045391264211,0.3951206947163668,-0.6395301572547782
4.056374324,-1.5179579686314324,0.5180130029961186,1.1496932562742381,-1.5308704424482473
4.073131567,-1.174165781893424,1.330934122587839,0.7239432891619211,-1.3155284753575989
4.089887915,-0.5660516924921107,1.486164316753681,0.2551037197790247,-0.7895549176361856
4.106645016,-0.2091506209723733,0.7985367394807099,-0.6401138164518794,0.2919815236518253
4.123402361,0.14251344806508875,0.07550347198524973,-1.4695845020950333,1.3482537891794408
4.140159441000001,-0.014475734198374935,-0.5435890737266253,-1.6375068142765359,1.6227712599632307
4.156915891000001,0.40543702618602884,-0.7279751559146194,-1.1874129158994013,1.2293907274646276
4.173672951,0.2657386462464772,-0.7829539029001682,0.6927350771648949,-0.4210728950155156
4.1904299300000005,-0.4176469826717693,-0.6104960422247621,0.3086768249580277,-0.3565343631234664
4.207187295000001,0.35195790335207505,-0.012464937689286772,-1.5160788360678323,1.5486024204055084
4.223943826,1.0560952248376372,0.2091073433225811,-0.630232626474114,0.8803449087144445
4.240701120000001,1.216789879332688,0.2761665434428617,-0.3639126307266435,0.6844671315153519
4.257457754000001,1.7470132320257223,0.33283395754248163,-1.3348668223755857,1.7355912399259992
4.274215078,1.540819073697478,-0.009703900518646336,-0.8368842046900633,1.2428048408361583
4.2909717,1.4200862256989173,-0.2421568164301219,-0.6487023059455699,0.9978361557190663
4.3077290260000005,1.285775261178848,-0.08402062779403494,-0.2245181988511911,0.5844492128804031
4.324486096,0.7068613774609231,-0.07900567344857337,0.342902828601129,-0.08106178793238311
4.341243125,-0.010035019963602154,0.000689167508466568,0.5051879432385994,-0.4884977375051293
4.357999443000001,-0.975759869068867,0.025522808370975446,-0.046565393217036496,-0.1706424277990268
4.3747568590000006,-0.5761831959058833,0.20531411734967117,-1.5961236997189296,1.1928492501217323
4.391513747,0.42546062261071405,0.21325156346067756,0.0016314881221944416,0.08821562991653177
4.408271061000001,-0.5796139563161538,-0.2285785987595259,1.614629467257137,-1.6613918657294917
4.425027368,-0.8200690827832661,-0.2881816597398772,-0.24228912956782042,0.009832824327870747
4.441784642,-0.6977699737110142,-0.31277076609907467,0.5406788341682541,-0.7653754129383503
4.45854163,-1.4293707012893,-0.2364440207301619,1.6096905613058246,-2.0157333171031153
4.475298925000001,-0.8788791491553265,0.5301428052311902,0.23075511063022852,-0.5142051726113921
4.4920553850000005,-0.4551210757158077,0.8405514629815656,0.4680403669203567,-0.5709330334400238
4.508812374000001,-0.3627575968347976,0.7163416852979082,0.5187389557553455,-0.6248302612028501
4.525569607,-0.064809857373865,0.687623701771287,0.2378793501802318,-0.2982739443109971
4.542321398,0.15867817593739852,0.19390075481226596,0.478389697345268,-0.44926626374570583
4.559080136,0.8102551935144158,-0.22288546091689676,0.6732654799616612,-0.4259450216273476
4.575843514000001,0.4114199939452431,-0.3276051115951344,1.4127246900534056,-1.1111287621361814
4.5925972680000005,0.11127279832041619,-0.07452202013643845,0.5316467996757853,-0.39094024900737057
4.6093546320000005,1.1699272335239388,0.28734568641739777,-0.2488802374504655,0.7194134615135
4.626111256000001,1.2833496946266891,0.19715054193306164,0.7024473293298416,-0.10706744444396145
4.642868337,1.0528569061172361,0.2278822371442672,-0.6547124368461116,1.052613288708802
4.659620584000001,1.567496409652909,-0.03010846474486721,-0.9913277099161247,1.5696249130192275
4.6763871770000005,0.6562658715194316,-0.7831038982742883,1.1697539955823424,-0.6846008684679965
4.693139059,-0.422244200388787,-0.8057909487824247,0.9780468102545088,-1.100454891516957
4.7098963220000005,-0.574783612028083,-0.33233090245020547,-0.07408877059704916,-0.1565505891377071
4.726653139000001,-0.11968308472009358,0.09321397486536277,0.49479829652826623,-0.46273020913639723
4.743410229,0.17675259290351666,0.6702249670416784,1.138523107088828,-0.8282545087415194
4.760166862,0.09260955416373613,0.9511338112332914,0.3818072296786042,-0.31872266352626566
4.776924472,0.37995125477693276,0.8108706820622907,-0.3099693876409623,0.3896646791342889
4.793681186000001,0.07985689654717969,0.3435554236970269,-0.2177252992604453,0.18744250945770216
4.810438114,-0.4353423286431716,0.021296145410662902,-0.07930246445246208,-0.18954353938396587
4.827194869,-0.804614888799549,-0.09787850387042149,0.10995558384047434,-0.5485010468925599
4.843952020000001,-1.049422109067541,-0.38903800624229684,0.6562510545700806,-1.0215808339170929
4.860709101,-1.2305762039612524,-0.36512870541115805,0.7491337244067394,-1.1974854600745095
4.8774660910000005,-0.6079525333401714,-0.1171916513797272,0.23348160278526128,-0.5365194337402935
4.894222489000001,0.4104768073205413,0.07107674391474042,0.5010522422660142,-0.15000058316046846
4.910981227000001,0.4168775936774046,0.178803985244107,0.5754107095177124,-0.3742999089285019
4.927735613,0.4187026954415444,0.2754152127434874,-0.3283907598838184,0.5674883075301557
4.944494229,0.6408210751404996,0.039419612351078936,-0.28294390026191246,0.6725144818061414
4.9612503740000005,0.115668566195125,-0.2665111334296582,0.5929394277932095,-0.4254644637149536
4.978007871,-0.3969790394297505,-0.31338283583876025,-0.16982510174496915,-0.07347116025659499
4.99476485,-0.05254021270322923,-0.3357651904854286,0.16188637540319736,-0.12891378380759924
5.011522103,-0.3737896782171136,-0.3480009301578238,1.61514280249093,-1.2678723941488763
5.028278564000001,-0.49955518478399624,0.10544116377837633,0.9737766024861285,-1.0956254032681663
5.045035512,0.3402421615092777,0.7644884682446452,-0.09215977812311237,0.19933013322904417
5.061792734,1.1597421801843588,0.9160338659448285,0.7445318381928375,0.25054640972822984
5.078549947,0.8191272065125744,0.702633388534679,0.07635121474667027,0.5316687714710117
5.095309438,1.043545666814675,0.26588385129263564,-1.7554836007162713,1.9649692418209677
5.112060538000001,1.060504415582702,-0.5394726039168379,0.12006018635082841,0.6829288246895231
5.128820313,-0.5163877359524633,-1.1203960983795125,1.0200212936820239,-0.9430594504284073
5.145577923,-1.0579073266271792,-0.6609631241438356,-0.10253745609218683,-0.6278808710964888
5.1623343120000005,-1.091498501891991,-0.2003544269479918,0.6069980549026359,-1.0996679720662426
5.179091647,-0.8256077469332196,0.28859140512805115,0.8705701408324541,-1.02370018732931
5.195849735,-0.30547827651785775,0.903464331080966,-0.5510003975408273,0.396782981139202
5.212604272,0.7439440955913291,0.8467452345286215,-1.356326853346451,1.3149621374424512
5.229362216,1.2936374251313718,0.06031146143234337,-0.8269321431065642,1.4556330692574888
5.246119471,0.198412947750297,-0.6283545997973131,-0.4971708883862724,0.5187247390419247
5.262876205,-0.3698690780315685,-0.6031397869705512,-1.1661453086958162,0.42557555166661654
5.279633448,-0.2758657843813822,-0.3358494172413856,0.5174790471501173,-0.4546574545060727
5.296389695,-1.2837673367039144,0.1705803276003758,2.013058271674422,-2.285070615250569
5.313147152,-0.7651194209574771,0.927228523981255,-0.3365209398197864,-0.26443732161258504
5.329904364,0.8054578783006646,1.0528205161521642,-0.8082586837512897,0.9873503281363981
5.346661293,1.075618457113491,0.3886071295821732,0.29260952439094645,0.509940164154259
5.363417701,1.2278135726480899,-0.18793657136753483,-0.9606325469744041,1.459190761531326
5.380175199,0.9958043581013105,-0.8679721057405525,-0.8210165100801504,1.1573545223518276
5.396932158,-0.14065315488077082,-1.2574737757920502,0.9773236419857589,-0.826627381797584
5.413689309,-1.0999470566981395,-0.720067204822789,1.2312087981157773,-1.5924623091631385
5.4304457070000005,-1.0797276770407702,0.21287718683599113,0.9656700128621508,-1.436994604797519
5.447202871,-0.45979581507651207,0.8134334188095641,1.585633314425629,-1.4450162754296025
5.463959849,-0.520386189323327,0.8318327534754948,1.0184320195664374,-0.9330625838265354
5.480717386,-0.010428789056616357,0.7412570678237145,-1.6870119472526721,1.139557345557262
5.497473848,0.9149755239671523,0.15375061850140934,-1.7791877711437798,1.9035172532230344
5.5142307740000005,-0.03954912097336759,-0.7458738315453882,0.7833828559458191,-0.6683313016691231
5.530966992000001,-1.249208277459318,-1.153040235091042,0.8999509831493756,-1.2032480422189293
5.5477448140000005,-1.550105194158529,-0.784290799253818,-0.38926861962111814,-0.3271548897756557
5.564501498,-0.9624248999947341,0.0013119648144381802,0.915404033617717,-1.2813516459264236
5.581259035,-0.27379883997605364,0.8359673024555921,1.993231356346197,-1.3045112735272755
5.59801572,0.5218627267560182,1.2379435138049495,0.2935528507675461,0.05099396728959103
5.614772943,1.0825870705471468,0.9458283267497836,-1.3443193373550562,1.7163358311719796
5.631529595,1.2010279739449248,0.23072958030970436,-1.0341314136344553,1.600811852388244
5.648286859000001,0.8251340217261489,-0.5447127309883526,-0.5599293361781474,0.8426782414012891
5.665043533,0.3168219064246131,-0.9333298360340198,-0.6378583467090697,0.5146877514239651
5.681800685000001,-0.3785850930417209,-1.004658055286812,1.1403590324973025,-1.187195385482725
5.698557581,-1.4669168377043007,-0.6855157671382391,1.992102958517432,-2.3490008327500878
5.715314479000001,-0.8357543392164457,0.23337795253248098,-0.35811617180736033,-0.17449430361272694
5.7320717430000006,0.6793225979715062,1.0311498300920936,-0.801967499139392,0.7080835942717086
5.748828701000001,1.2555149765213647,0.8626690097716689,0.010737423484739618,0.3102114542644473
5.76558511,1.1160332112681872,0.4033812587840662,-0.984598027850109,1.4255350252938102
5.782342476,0.6478185094704098,-0.17267730237576703,-0.9407252610270426,0.7346062192882963
5.799087827,-0.15192918538852457,-0.566796432959459,0.2144606932483626,-0.3502568637966478
5.815857360000001,-0.6818133090743342,-0.5034766007607973,1.2313470652132492,-1.4153822922656154
5.832613229000001,-1.41060048506092,-0.16219561134817992,1.0868885469558427,-1.7558806225317127
5.849370472,-0.7116995325397093,0.20045092472287826,-0.40898264285683517,-0.11007023811316172
5.8661272890000005,0.03499518315371828,0.3429990067661728,0.5007741213655641,-0.36366146328957955
5.882884542,-0.214283175445284,0.13301644351742706,0.9813377007097778,-0.5159507660766403
5.899640899,0.2878144147894952,-0.030456200507478312,-0.3509470616757545,0.3730505661168474
5.916398185,0.13890247106270084,-0.13664989120991924,0.40752087708871354,-0.33920499956619415
5.933155325,-0.3436723694390603,-0.03339105616047731,0.8315437110826189,-0.7697940486540018
5.949912589,-0.016322518271510836,0.3336033792302918,0.2868224555612507,-0.11237253465863657
5.966668734000001,0.038571998426141015,0.10764297243708804,0.9296479759622074,-0.4826432291119768
5.983426089,-0.3557346778591261,-0.23566580417470684,0.21339649336573713,-0.3928208998034564
6.000183149000001,-0.22834507924630956,-0.3667066867312917,-0.9264812929807391,0.583539342283904
6.016940261,-0.09650431514697513,-0.31775059203879374,-0.6386621500597002,0.4046119082445187
6.033697116000001,0.3364810079635793,-0.21173283497186465,-0.14203460030603043,0.2968000064743274
6.050440922,-0.026402166218236232,0.051941970247323915,0.9751818275660126,-0.7902071067741518
6.06721085,-0.4219521375131519,0.2788078170836971,0.7371956863591177,-0.6682353668160185
6.083968277,0.25618104336545,0.5359230526830228,-0.1386672873337615,0.2595992195453403
6.100724899,0.655043838505062,0.6200565479590389,-0.133072733721464,0.5452196379877468
6.117481869000001,1.18090780085092,0.40001320095717097,-0.8422421361675657,1.4153294025578471
6.134238786,1.1322450171422558,-0.1748342211724484,-0.6538651603509014,1.2479545717183649
6.150995988,-0.331339128416893,-0.7318533612148399,0.7172010702151389,-0.6590314176844173
6.167752469000001,-1.196000843178255,-0.5014096213537457,0.25596962978306287,-1.1159775753086156
6.184509886000001,-0.8394249747673355,0.005816439094936844,0.06629134029987377,-0.6516918389003209
6.201266965,-0.3544165983346569,0.38855474247253813,0.9723036685441004,-1.0698039113815039
6.2180239550000005,0.2064237859725371,0.40012358342034116,0.7896307019242751,-0.35477288820756187
6.234779285,0.3379096732858461,0.1247590823789551,0.39181648593498763,0.17401864949303503
6.251537851,0.19128735172171857,-0.2857634033255623,-0.15542162162471834,0.2178601832398946
6.2682947790000005,0.2584291469539133,-0.443283512909614,-0.5873864915316789,0.44292946421899065
6.28505191,-0.0791983515766487,-0.38354205967610017,-0.5243545756257031,-0.01650149666332224
6.301808177000001,-0.5168601560453714,-0.22781178925540913,0.038791964790877306,-0.45588116555923813
6.318565653,-1.4211163451940803,-0.12883561382539999,1.0814963943153892,-1.6907103552397778
6.335322724,-1.7077247943956007,0.22275142273964169,0.4621187065662699,-1.4043459191513394
6.352079957000001,-0.32101817239735614,0.6631474375896498,-0.1469399877713182,-0.1273423674061277
6.368836152,0.3022126223038449,0.5467646943697508,0.9092934430045371,0.38951852271616805
6.385593305,0.39689841285772476,0.3275359207974319,0.29882793436749133,0.10847160905109263
6.402345737,0.8368764182582645,0.11329850334321095,-0.7691049534317052,1.1337838156523619
6.419104709,0.7776460351839398,-0.20944677058766115,-0.6558335735975999,0.9619248657029009
6.435867303,0.9283306915785651,-0.21726578653621298,-0.46528994563782977,1.003417403875332
6.45262124,0.3976993224076466,-0.10772801522583562,-0.3041079261191231,0.5064240462623284
6.4693785440000005,-0.1280797536326693,-0.11381333108561226,-0.26108378766496526,0.11836018843055955
6.486134964000001,-0.6667623764483268,-0.14867647167888684,-0.24041407760245723,-0.1564880224683525
6.502893001,-0.6335152124357619,-0.24848433187048352,-0.16429950741394134,-0.007811559814612855
6.5196491960000005,-0.011964988070538784,-0.32517786412613875,-0.16230183874989382,0.12548026747989002
6.536406032,0.3787530399941634,-0.43313446645168985,0.19895679974649552,-0.07408159448095866
6.553163632,0.1840548079503343,-0.3432867962976268,-0.08589135449205909,0.04661430774885456
6.56992004,0.43550716462356126,0.17022416178635674,-1.3965511524377348,0.5048644644309951
6.586677234000001,0.873340926461953,0.5500952026699438,-0.7356596562745236,1.2062572998311887
6.603434121,0.17440961805271724,0.5139863726120095,0.37920718628794065,0.014375252929454184
6.6201912720000005,-0.5862610458469539,0.35350686310413215,0.13999276324716273,-0.5184161213203491
6.636947854000001,-1.3384517672138831,0.016353714281042656,-0.2465252027157648,-0.9819025445489598
6.653705209000001,-0.9482831572410149,-0.29970170685735664,0.39800561197080514,-0.8081796047449782
6.670462198,-0.7965760920304056,-0.3691093650958556,1.186497328104633,-0.8648408265875207
6.687219086000001,-0.3764154930302932,-0.20093062681691243,0.28846512225686477,-0.09689453187905524
6.70397582,0.22262681106588483,0.19353587146423218,-0.1150731398441848,0.09597857634456576
6.720733053,0.2880842214579667,0.3613603615528356,0.14796438945478488,0.02222315474492333
6.737490042,0.41897927533957413,0.4695447276989294,-0.4190006173520713,0.645960915561563
6.75424757,0.54388443511711,0.2753342286676728,-0.3992962101859673,0.7132657967547243
6.771003511000001,0.10457588035278596,-0.3206449606418713,0.3846877493618511,-0.17484305193166502
6.787760897,-0.33065937944170165,-0.5172994530142205,-0.11243180081429872,-0.3278125200754065
6.8045149060000005,-0.0013373741999187017,-0.4499619361428172,-0.08839062147211894,-0.06373138079555304
6.821278435000001,0.02457462878878929,-0.09136240040297172,0.4104980506042933,-0.19878580539291954
6.8380312850000005,0.463265591920318,0.4365350845902584,-0.13416531623277111,0.44117400035770904
6.854788639000001,0.6297552799687365,0.7333699757957605,0.05796838594681969,0.3080508338625535
6.871545791000001,0.7233727702997496,0.4301800920416678,-0.20013870372256148,0.22867467408251826
6.888303126,0.8119953810316352,0.09621521609659836,-0.22472200884267088,0.2439180764095848
6.905059575,0.38274531359546976,-0.3387892813165631,0.2971520444944368,-0.059860265818366266
6.921816504000001,0.08914471972435348,-0.49065699548807507,0.1519651584442484,-0.03355686167123628
6.938573532,-0.3683535341024959,-0.3562006201456924,-0.377582006319816,0.016151992453132504
6.955330909000001,-0.46798155681931386,-0.11879637622512852,-0.04656245046821593,-0.3586049356172752
6.972085517,-0.6424013761541016,0.048728663467221434,0.21156734679930903,-0.6467087842233455
6.9888465140000005,-0.7356702494100072,0.0016426456512399676,0.4701232295015866,-0.841437326440549
7.005601367000001,-1.2226604153187874,0.028271988610775716,0.7328358430676997,-1.3304488919727075
7.022358742000001,-0.7703005586545556,-0.11265862827708191,0.07013772277048261,-0.6991423297345067
7.039102069,-0.18992149725527493,0.10784196632505352,0.5275161387301978,-0.40174743883784536
7.055868865000001,-0.012222412847704384,0.38908172228374965,0.6252396058910311,-0.014583499348489586
7.072632954,0.3807906164723397,0.8596720234663664,-0.3719143216923637,0.6852642343783709
7.089386657,0.7652603242414728,0.797952620084876,-0.2971912617226978,0.7921853945795878
7.1061432390000006,0.6965573657814774,0.3960806164123879,-0.3438092012171923,0.6822112861655599
7.12290035,0.6479147724767841,-0.10628215202698045,-0.2722272441120685,0.694404370607166
7.139640808,0.2608026488811661,-0.7512577463619059,0.6799158640885756,-0.07877529118928049
7.156417686,-0.04775594726047065,-1.0011646704679733,0.08346676824634425,0.11308552826189598
7.173171032000001,0.35170004771420094,-0.5756015363869404,-0.39059157465505295,0.5296973565127127
7.18992795,0.6235756381728759,-0.23492675495789453,0.4401500453345142,0.37674276589301253
7.206685306,0.836357071020528,0.05322729550459053,0.17946816650473923,0.6925648097205933
7.223442314,0.37700711254090713,0.2935786125338891,0.10705615596888633,0.36665958818663075
7.240198906,-0.24067868774457576,0.013459718347044309,0.19653613533884887,-0.24939426565217865
7.256956354,-0.5229426431793226,-0.1868815489578976,-0.4290148691715371,-0.40015200524457323
7.273713159,-0.5048582596332963,-0.2863874605387826,0.23719773144117415,-0.6238185806816833
7.290470392,-1.0150735813239076,-0.15229468002007693,0.8728566307123728,-1.2236191240520502
7.30722668,-1.0093344507880728,0.12433576292778724,0.4205880355197099,-0.9361161426645913
7.323983842,-0.7002627346724304,0.3498059050057239,0.5433146022752559,-0.8986985012364124
7.340740993,-0.4834236261119064,0.5034915932288788,0.9033939126760769,-0.5198405363766436
7.357498186,-0.30647231112676826,0.723368184490305,0.16827734859256258,-0.5687945723771867
7.374254819,0.08676305240715022,0.6118532234291146,-0.04575824692171909,0.05743032272447147
7.391011655,-0.050557021465976064,0.2250998180874407,-0.11540442927846245,-0.03165852913016589
7.407780943,-0.048136555951906836,-0.1753023809519255,-0.30728440886232616,-0.031379715339104705
7.424526101,-0.057629737929526234,-0.5651578764118209,0.11975633008797196,-0.2004157239680593
7.44128258,-0.25090285307600535,-0.7831870663565372,0.09612260711515914,-0.30295076054058157
7.458039865,0.012188445170584632,-0.6247482205317302,0.19604426381961487,-0.24653132145714193
7.4747966,-0.11326110936613608,-0.37438073686294926,0.9823355559785523,0.05041280479206783
7.491554036,0.08488114421315682,0.006840821773944215,0.15233047905304536,0.06569347189531653
7.508310486,0.6183347468897721,0.4417070163644617,-0.368085672591614,0.7727047848276257
7.525067821,0.6785911421656575,0.6796721520612032,-0.6576476499283042,1.0508621805680964
7.541824555,1.266467040005601,0.5115402539151839,-0.823392114803969,0.9968696203349031
7.558581625,0.5318240777690185,-0.20776526586406951,0.5315558218252983,0.290820769447452
7.575338411,-0.586685395682783,-0.728634915345022,0.4318442550481646,-0.5214019225597382
7.592095613,-0.7106793897940471,-0.44811935789334517,0.19161563788991381,-0.5825405982931284
7.60885245,-0.7980944644707122,-0.05310563355932846,0.7840035693200348,-0.43941680928903054
7.625609612,-0.21502922694228388,0.595436297772498,0.5249416905327838,0.11529750262156761
7.642373884,0.14536899904713932,0.8391929855985601,0.5503894522881684,0.350385800517387
7.659123539,0.04968045679757542,0.46062202410155356,-0.20846041849473332,0.20680623973196974
7.675880538,0.4612009112509241,0.0381835053223207,-1.37532589126215,0.30723361209391276
7.692635014,0.2866585103947145,-0.6972965434145958,0.5258606817735828,0.4433749509559871
7.709393661000002,-0.9240538745878731,-1.1041810154457736,1.2330289668640966,-0.7638865669898676
7.726151403,-1.3178998642278195,-0.7681872267184792,0.9218149500266885,-1.2378243491757421
7.742908025,-1.6882159509282417,-0.008892107122247233,1.296437086134511,-0.5781501383807434
7.759665798,-0.6706212103926985,0.90131579360548,0.4220019538151683,-0.10869586486782885
7.776421892,0.4476462400605381,1.286425313262291,-0.019431754571980552,0.5109482450393666
7.793179125000002,1.0898626109419174,0.7211337304513009,-0.5128553205827038,1.0811443820044142
7.809936276,1.3129390233388916,0.016661725927584997,-0.34301025143478836,0.9122657377899105
7.826690367,0.20313965404754278,-0.6963579395926647,0.4380517956852223,0.3245133090925711
7.843452859,-0.20402488517817144,-0.7743531565339912,0.22057077502840194,-0.07888772386800182
7.860206887,-0.2125002478789779,-0.40371637700894625,1.1642892049979172,0.05573326174834425
7.876964172,-0.5387805557473422,-0.046296528482330596,0.8803851481696894,-0.6956751346388764
7.89372115,0.5718948738808095,0.693674552048698,-1.205838725660224,0.4435311820465801
7.910477925,1.3239508681487961,0.5934246073190195,0.2750261706786332,0.7700789682799776
7.927234884,0.38720052626823387,-0.13131408098409586,-0.1303477603549185,0.031223921836189075
7.944003429,0.5281351554787391,-0.43811378717477634,-1.7254595203452963,-0.15414622971421044
7.960749228,-0.23335822425922084,-0.8273272167488366,0.8083254721242045,0.39182133975831607
7.977505811,-1.0207645771712173,-0.6966480299630929,1.4194157590668561,0.0684979947178132
7.994262656,-0.7429989083122995,0.12230115718433607,0.9919994935526515,-0.5184061865929772
8.011019747,-0.5815313235713594,0.5289609312844274,0.9260527413727655,0.05551104580865894
8.027777113,0.3150608923957516,0.9471769248216453,-1.0435297936563463,0.1088721013608879
8.044533359,0.9981423023728428,0.8829899251238478,-1.5158385940899697,0.9177486364569621
8.061290978,0.6557401007887156,0.021996859548240884,-0.23192204441064143,0.28510943805601136
8.078047632,-0.3849200794986107,-0.71592886123637,0.3312725979996962,0.3430809224366771
8.094804763,-1.6699974369648476,-0.930282734625537,1.1761009156539557,-0.46539439172101277
8.111561437,-1.744121759207287,-0.5928969951925969,1.3374436965813166,0.7250661833355762
8.128318752,-0.5418459637457923,0.10282085170743205,1.4633553866245435,1.2500768437181733
8.145075455,-0.16221688445777901,0.6923893867916037,0.9042527894956975,-0.26662302968813983
8.161832749,0.9569305597503235,0.9979316729001961,-1.2738293711623263,0.06761256661669618
8.178576147000001,1.52749869578994,0.5020799754556878,-0.4619264998176936,0.3825956290335861
8.19534634,0.11750219710221659,-0.2970358726295755,0.0566492326510537,-0.010379677520980965
8.212103706,-0.19660323501550125,-0.4978505241851297,-0.7627131683831858,-0.7652226103559862
8.228860542000001,-0.6432058135212957,-0.868335569982941,1.1793039808763288,-0.1382304999007
8.245616982000001,-1.1636333972572788,-0.6593421722394044,1.6778406832892354,-0.8437945914146401
8.26237451,-0.3523734515947025,0.292250193626499,0.023608249115813256,-0.250298225563753
8.279131529,0.4757262420441498,0.7042593633063717,0.648767562409107,0.4729019461864304
8.295888620000001,0.6174746108313814,0.6526765640864759,-0.2029043917328652,-0.5123349471647015
8.312644999,1.1257267625548066,0.6690688809470693,-1.9355680879720238,-1.466062069453035
8.329402283,0.9647738859110976,0.13206945872397396,-0.6795556559623775,-0.5137009198155749
8.346159037999998,0.21824913524861866,-0.6105599303234119,0.5739563856629155,0.24027158473468263
8.362916627,-0.6671680311786896,-0.8312431053939341,0.921885018868906,-0.3720659530247188
8.379673270000001,-1.2218812332530058,-0.6653242997657979,0.6113901420465679,-0.25800196322790236
8.396429984000001,-0.6110351061137586,-0.11647446258864115,0.01762404888256502,-0.3248102024674367
8.413187238,-0.40364250945680813,0.31859445254675145,0.4740649979289227,0.2023022035993046
8.429944399,-0.06297044360482192,0.4645545245016699,-0.30552437222316325,-0.2534854535333185
8.446700748000001,0.39698192988820097,0.29658764007538735,-0.42638701067493606,-0.13635579737530804
8.463458266,-0.48640705082132163,-0.00710073766214127,0.6156786535561041,0.3350845262371932
8.480215163,-0.4107257284907445,0.13267157058701531,-0.5758865416428333,-0.643023049734603
8.496972193000001,0.3233484831922248,0.14709649706116423,0.1909156913393552,0.36302407016169347
8.513728816,-0.35061631425360107,-0.11729737339988959,1.2360615080467474,0.6663629583040257
8.530488387,0.016225432657347303,0.057323816084012144,-0.0184935612511822,-0.002625211908550382
8.547240505000001,0.15078780147432572,0.0701466866307141,0.14915762782018832,0.2037807524562278
8.564000056000001,0.27443973815968964,0.019104405038787024,-0.3001224056244537,-0.10579066995949685
8.580756690000001,0.7971896677445436,0.19644997644524095,-1.0165795330248713,-0.40760241296065314
8.59751374,0.29141670939125747,-0.06801674622890613,0.14360276533591668,0.21819140301028614
8.614270983,-0.19708130915918434,-0.3871889250243184,-0.3112898757965656,-0.4299650141776266
8.631027992,-0.6253784656660627,-0.5316081476335758,-0.14723599715216545,-0.0702641047759405
8.647784382000001,-1.3482289037384987,-0.6467779877898491,0.6109108608384197,0.6895698092742989
8.664541787000001,-0.9528180605517972,-0.624706399106712,-0.055397746498447004,0.2600729527994738
8.681298827,-0.880235139476975,-0.39817671530573534,0.2545952062203938,0.5167203779760661
8.698055785000001,-0.7669459050093895,0.008104347821782504,-0.12768238297532256,-0.21776515152021825
8.714812377000001,0.006090917536834862,0.5086962519493797,-0.8356639262119974,-0.5135450617031739
8.731569489,-0.20407527179265383,0.4895620168458417,-0.33920745677183384,-0.18603468968533635
8.748326641,-0.3021071798059239,0.33951877096652777,-0.6495259755526868,-0.5527282251726449
8.765083995000001,-0.6405529174312258,-0.0949337249154976,-0.5087445551245015,-0.7296228184331462
8.781840445,-1.0687009705206394,-0.499981180998352,-0.10486379441818541,-0.45624229390571036
8.798597373,-0.7321694528606121,-0.47836072022346043,-0.05308489232799531,0.04496745541642537
8.815354515000001,-0.5078866478014694,-0.23952959381531463,0.7328827602213022,0.8467168098497998
8.832111961,-0.19796103417209837,0.26326610781696624,0.47616051155121064,0.47448857328084854
8.848868105000001,0.575513868719052,0.7237094573019986,-1.0615008908883667,-0.9107620824512517
8.865612318,1.405837200343646,0.8401532206321319,-1.3912889372426382,-0.6485512413711328
8.88238241,1.6926715481861234,0.27674838022480264,-0.6747715842607128,-0.22892951615493337
8.899139683000001,1.1072851708773381,-0.5222035179045125,-0.22076752100768063,0.3424307448117124
8.915896215,0.30920854568822786,-1.012384490672447,-0.03976836785731787,0.015263022181255675
8.932653193,-0.2633929165525318,-0.8334781644357739,0.4808595705643215,0.15759952781268627
8.949404932,-0.26644424301488695,-0.2490426795484602,0.6693054999573144,0.400994051076507
8.966173132,0.21241306900774276,0.5906126126585229,0.5056571010274676,0.7076770002556283
8.982924119,0.7754620356482107,0.991251643330876,-0.03565867572514361,0.3919958040358983
8.999681107,1.2497260788750644,0.7734831914167478,-0.24851589368608978,0.1817975445670826
9.016437925,0.918231376535219,0.09092145806583495,-0.5078549692186094,-0.4853078381253422
9.033195534,0.6360610687437777,-0.5378080052294039,-0.7018891081464256,-0.6108877218474474
9.049951921000002,0.008848953416167276,-0.864091763976848,0.7629569295411694,0.45323706594119867
9.066709187,-1.2111728313329981,-0.7014541144254148,1.3729611376857838,0.4942165827752945
9.083466235,-1.2328991184239424,0.1595333530468084,0.4665632064728215,-0.17654112201919786
9.100223163,-0.8079495831781855,0.7930000418372255,1.3005063503917453,0.6924010918903627
9.116979777,-0.5565261793863571,0.8533987347657387,0.6897655666321588,0.374368920312278
9.13373706,0.29070067665753446,0.7522429444539371,-1.2324179443347811,-0.29156295439220486
9.150494089,0.49828263301180337,0.1426775341334615,-0.6596088917163032,-0.2856073041928095
9.167251049,-0.15972241586334393,-0.7244036985197088,0.025079279421587403,-0.17901257131266252
9.184007468,-1.1884826942221716,-0.9992750193674106,-0.19608759553328933,-0.13644709896218998
9.200764965,-1.6228101795654146,-0.8588568749934826,-0.3199260392251821,-0.16739521247263003
9.217521985,-1.1454029425763101,-0.33700368547306564,-0.014863498539802228,0.26198547262571004
9.234279188,-0.6938577583166932,0.2927722132566476,-0.03401873347430379,0.17582546940827926
9.251035413,-0.004543091626284218,0.5822046323102593,-0.8308539715525178,-0.5874152916335688
9.26779281,0.5748436330868554,0.32663747661996634,-0.9901693884625574,-1.155646143638942
9.284549869,0.5068105070577036,-0.2376678081795151,-1.1277451707049422,-0.26769742558894494
9.301303836,0.7092076695277544,-0.3049419454898964,-1.9651759582603434,-0.7269014092356613
9.318066512,0.713865023087775,-0.18398514641596428,-0.5630246300612092,-0.2527142208824352
9.334820531,0.07780423986763045,-0.15888209469897902,0.028831054880608505,-0.04501461234057361
9.351577682,0.5493446119983829,0.16982001227163893,-0.5137162450765416,0.5659281339354387
9.368334896,0.9952387836481368,0.29234222242377633,0.04139820571163259,0.5646152322955144
9.385091549,1.4960159999066205,0.4140430481434324,-0.4519854609067636,0.2706301836818462
9.401848435,1.9729812901873633,0.67247879421228,-0.6635604459217269,0.48137462465585856
9.418605323,1.6268041150551251,0.36087307874992286,0.12296867451254251,0.1291690782992419
9.435362974,1.0621744542095566,-0.09425031058145884,-0.07624488452499809,-0.23144552209273267
9.452119311,0.3404343518458854,-0.40266622825728277,0.5319158171784749,0.20263793187061546
9.468876514,-0.31625939089362526,-0.6789813799220182,1.4508399371986929,1.5749427037922912
9.485633279,-1.1017821917089379,-0.5902997969368917,2.0124174288226704,1.3788748090368135
9.502386504,-2.0129058088296494,-0.4713742729836325,1.0342053847906063,0.5575559758379598
9.519147104,-1.6819778530126483,-0.17307903002762515,-0.18388583774124898,0.12232721333973426
9.535904419,-1.5852136841562152,0.09852111267250996,0.6906330591165092,0.532646285010041
9.552661276,-2.0674853609024684,0.2447948116667823,-0.004097698678294786,0.0658807144750792
9.569418314,-1.7094946484491573,0.40009842758528086,-0.33812288660376627,-0.26654625843201163
9.586174847,-2.08245507411743,-0.07809106669799835,1.9189410188664522,0.887136835572525
9.602932222,-2.58920148120668,-0.217045638748573,1.5198245539011115,0.2846474598230511
9.619686027,-1.5998870905957243,0.43883277206631033,-0.5177275446558982,-0.4201143992067713
9.636449588,0.033995460496206144,0.772771606028791,0.1653452346894063,0.21714146246036975
9.653202782,1.0443120656800748,0.8390149910663814,0.1082759515985093,0.7906337552106407
9.669960106,1.7500301951042654,0.8803995500193408,-1.785019725094587,-0.27674893122917427
9.686717197,2.333497729059743,0.38593119115452323,-2.1598269738330003,-0.31647535960513734
9.70347441,2.151993656085088,-0.3826899225052421,-0.6411623966725721,-0.3388136436885097
9.720231114,1.4409285541006744,-0.8874516914865014,-0.04555411478435681,-0.060919592599240985
9.736987910000002,1.447427363958338,-1.1397810818055103,0.26402270617055995,-0.11690772433817678
9.75374499,1.202779049908528,-1.0758847271700631,1.0745502658021966,-0.3229990793116302
9.770502314,1.4227634972352319,-0.5344460706625168,0.2185378390368273,-0.04229789124702326
9.787258805,2.1287145521514805,0.2277684299895446,-0.9399823350190274,-0.8158375378316853
9.804015733,2.2474624506970895,0.27387830069783403,-1.515198292311266,-0.5779196481195408
9.82077263,1.5307993762183851,-0.04731698357224981,-1.5038518251152349,0.6984783629420007
9.837516955000002,-0.2496103703499421,-0.37434881129428266,-0.4062700553557506,-0.5349799648700013
9.854286446,-1.873424419874155,-0.5951809871601793,-0.5931641895807962,-0.5303995453863074
9.871043872,-2.3729354409585053,-0.373380628040492,0.03986109715077256,-0.3816438836252252
9.887800892,-2.800259085537417,-0.00018941001050840477,1.2712464792920273,-0.03433075075286119
9.904558165,-2.2442093003268266,0.6009869628460257,0.21197950346898617,0.28360303092275513
9.9213143,-1.3296223789958124,1.0278785191725386,-0.5197424337152594,-0.04913244361404384
9.938057871,-0.8574400402474842,0.9835669528477872,-0.8670709248052699,-0.5465681831201094
9.954829355,-0.23414639290562989,0.7262282835429908,-1.0075906816165128,-0.5335954137672256
9.971585928,-0.86118047596807,0.27770619662904145,-0.4158096381440245,-0.57131413142512
9.988342500000002,-0.8549751828071758,-0.11737450427618855,-0.6802532638528103,-0.8663095406997545
10.005099397,-0.5045448412677321,-0.2427403437604603,0.08357577979041618,-0.46940530075109627
10.0218566,-0.25308843347886406,-0.3432537277950718,0.9061275946374804,-0.8317356086431684
10.038613924,0.8444732133337689,-0.09667530899438175,-0.38734029790917246,0.8930725709006615
10.055371718,2.1008057507717566,0.025500701388091625,-0.2263662233361522,0.5894096689190955
10.072126030000002,2.1859607065530886,-0.0036236819367731483,-0.4103586327836756,0.30747775210318057
10.088871229,2.8901200983660877,0.12407193850688443,-1.7166360833657397,0.3175017464491895
10.105641686,3.251036595924447,-0.170105551548325,-0.64754636004478,0.5776195275724212
10.122398197,2.539335597161909,-0.5254858683143968,0.24946204341272796,0.7794050387225655
10.139160517,1.6910568985244705,-0.44744500551598015,0.09972558279168915,0.7102266123417875
10.155912176,0.8661559278138923,-0.46413098397915464,0.2595729799451262,0.4648450248859241
10.172669357,0.6817020128912861,-0.32816021304918797,-0.053022436855683905,0.22860269932344743
10.189426061,0.33448660125113167,0.08785529583860054,0.0570647692957176,0.24642381005851346
10.206183284000002,0.11748347046807994,0.3233382379720386,0.6244395951124042,0.013829786461962534
10.222940182,-0.25225002598605334,0.40061605632563574,0.8064384063063529,0.01350649249482969
10.239697405,-0.8778549661483918,0.4778786314982087,0.44007563767165603,-0.5891319320115763
10.256453784,-1.2464811526750583,0.5415101427706015,0.4556353544945183,-0.8727408110196618
10.273210946,-1.0913460370322847,0.26055512300593353,1.0512113148001245,-0.8850401794197229
10.289968178,-1.5454620913491788,0.04848746000633915,0.8846183324608464,-1.6754272075030976
10.306713012,-1.8267571999139425,0.2859541455064812,0.16734791357385462,-1.6339397873302295
10.323481505,-1.6695134023278118,0.2376334166834642,-0.09244704347124633,-1.5995809342823952
10.340239003,-1.1444754152197896,0.11269989127580231,-0.687538133041297,-0.4994410178407986
10.356996074,-0.497281871419784,0.20704407482220236,-0.6119389011539766,-0.17451002508843685
10.373753103,-0.52560716137007,-0.1659995554522333,-0.13264266237792255,-0.2862108948734029
10.390509796,-0.15174794637360725,-0.5160486032138488,-0.696620335866539,0.4762486658491969
10.407268251,0.1276937994579311,-0.5992004619859002,-0.594133362984828,0.20615917855383165
10.42402347,0.4117647062941402,-0.4029041674390935,-0.32783845539592876,0.0893863769824425
10.440781435,0.7430011207304215,-0.19366066618376357,-1.0593463140770907,0.8849623069877551
10.457537448,1.4406190642036913,0.07413046258657949,-2.198805908831805,2.1248577454494644
10.47429465,1.6791391506948647,0.2504568933244944,-1.2261399443889665,1.524713673116522
10.491051853,1.2273610930037238,-0.09298773942408906,-0.27320272696511305,1.1096348028838252
10.507809126,0.7094172212725388,-0.3743432257800278,-0.3483336816965379,0.7380758076885553
10.52456525,0.03904782035552644,-0.3522606896298623,-0.11590259611957768,0.36023280271728186
10.541322524,-0.13893888097709137,-0.17919842074137493,0.14485763177786312,-0.10127662647043294
10.558079829,0.21172418499425655,-0.05012640299564244,-0.0650871680458125,0.1734879866224711
10.574836756,0.7635088757760936,0.15338146148468945,0.006767814336879184,0.52458466342824
10.591593471,0.3396298907916501,0.2015860146672384,0.31435401352892567,-0.13559283415927006
10.608350521,-0.32935348058891123,0.18950274595833042,-0.8155512113982286,0.458243449557056
10.625107337,-0.46445826714161803,-0.008518218680438758,-0.9900519530801076,0.0969167627666518
10.641864834,-1.0948111618760012,-0.28009504815553926,0.47705065722376083,-0.7934621936691424
10.658621314,-1.9047059015544379,-0.4186152451350706,1.3534519481345908,-1.8084006866587508
10.675378426,-2.2035525441035406,-0.19350275353964366,0.2822484148436171,-1.274163332148224
10.692135262,-1.48378169295558,0.3037405166666024,-0.2642781824141459,-0.49777462483993173
10.708892515,-0.7114470092774696,0.5911291595511535,0.056526986539531386,-0.3955766956168414
10.725648925000002,0.2201978940444702,0.5790611166350179,-0.2434069489043401,0.07440377903188308
10.74239625,0.3904466826309324,0.2553571285396981,-0.31273650405923026,0.32270979266153355
10.759163441,-0.1894565630327218,-0.11392722001462015,0.20640336365099485,-0.26648356394092176
10.7759204,-0.659728732007526,-0.21712335285504678,0.32390118954441327,-0.36836922217419493
10.792670441,-0.4381339892436831,-0.16399065841997126,-0.20061273007376193,-0.0033031997970788193
10.809434418,0.2704941352364397,-0.05608209574633916,0.2825879380464626,-0.14971955687852495
10.826191174,0.14461489466582297,-0.13113159437339986,0.5930316331486495,-0.33853868283047506
10.842948925,0.4257523067591561,-0.35467181658485597,0.48060500928259586,-0.19656122160610773
10.859704368,-0.06337532119815009,-0.4723212673315661,0.40695858428243276,-0.17670362166137674
10.876462059,-0.19915828146019013,-0.43432110458382267,-0.19114528428942804,0.2736444747191742
10.89321914,-0.08767072750328397,-0.2311762994046181,0.1138186990892289,-0.08391998315170465
10.909978061,-0.1401445449165142,-0.14651558676387702,0.5597127422733194,-0.5093777252533351
10.926731043,-0.5364477161299593,0.22481597786574725,1.0586652068059272,0.2443966505754729
10.943490086,-1.0703915532613881,0.5033252393118787,1.389673682924302,0.025851506180491916
10.960247024,-0.7878750986701218,0.7957624783773042,0.39261834217256647,0.22976175957522652
10.9770044,0.031083923323801804,0.9149829736577916,0.11212834407363723,0.31323035234799773
10.993760788,0.2716757779015774,0.6694070417571858,1.7135452434058087,0.36673113668330987
11.010495957,-0.029815674381878515,0.27324218267123784,1.7877105099518311,-0.13748569757270515
11.027274715,0.19323269259051554,0.11500883090732276,1.3344329289453702,0.7425615244045193
11.044032182,0.12720721535210064,0.09125851000279646,1.5263988473432284,1.0959623227812445
11.060788846,0.8171786835113336,0.2109082293738498,0.9834969520412067,0.15097893570629944
11.077545683,1.0170420818001256,0.24482830282708318,0.865929184426635,-0.5680319125582115
11.094302367,0.6788564218678913,-0.05736096321887321,0.7467042109352027,-0.3462214901992123
11.111060576,0.14160994945281358,-0.4413627760197999,0.36381214154716085,0.2909928842615773
11.12781669,0.05165036727123563,-0.8785340925093101,-0.09432713538019616,-0.027426856981285604
11.14457376,0.32885422036625384,-0.9219541804041799,0.26321213914598757,-0.06521951688364526
11.161330586,-0.046234066388037696,-0.8226747046990539,0.9769567245354239,0.2556982381034708
11.178087993,-0.3458846290980198,-0.29691719574061953,-0.0014559632005143343,-0.20378767415020438
11.194844473,0.03358949454541102,0.2861170427004841,-0.71649209393012,-0.31419044077503594
11.211601807,-0.06361152275509081,0.6281447428166352,-0.5026936406958729,-0.05557041688064217
11.228358329,-0.10829268583275058,0.8811330992168613,-1.384632476381845,-0.3010216248395104
11.245107922,-0.12805850147125694,0.6142642168152324,-1.6038534711337806,-1.0484386069352551
11.261872276,-1.0289057940759634,-0.06332948664406043,-0.7525964504577024,-0.10070634619469501
11.278629559,-1.400214202287167,-0.4836525012380388,-0.4231951975541837,0.7403469057597387
11.295386641,-1.3392954440121365,-0.4624460902118318,0.007692567144699595,0.829266659057229
11.312143598,-0.7281240148674651,-0.14128261403046577,0.253856609426762,0.5408091430038605
11.328900221,-0.15629037831989023,0.35861055462524244,-0.04546422230119006,-0.12778048709034512
11.345656844,0.5826796059465734,0.6818604756276078,-1.8695205027485962,0.23769114379352835
11.362415064,1.8472321611804974,0.6821867381869043,-2.790609345446746,1.3066793492621134
11.379171493,1.8016304833471084,0.09090785818721231,-1.4352129356079886,1.4465173097893294
11.395927882,1.1141833538860413,-0.6074809352253432,-0.8455201844138385,0.8264836616320201
11.41268537,0.2710002150973248,-1.0929488255043536,0.21815629802175815,0.05527106456287778
11.429442328,-0.9642247194894809,-1.2084862828978518,0.8531177004674235,-0.1321101530389971
11.446199572,-0.394447447045207,-0.224335818277929,0.02229494978125147,-0.18411150744527
11.462955818,1.1507499420170864,0.6332417351247158,0.8436397340567935,0.3274688333500488
11.479712979,1.6766842102038826,0.8322908174211621,0.7829213209254573,-0.2426920830640605
11.496470182,1.668039270827406,0.7709079606099012,-0.6887643445894581,-0.3324335577024692
11.513227517,0.7573476186535901,0.3340975644929417,-0.7260023332274637,-0.7744211490244655
11.529983977,0.04715636887108813,-0.22986873455589776,-0.7161230092180231,-0.08156920595553574
11.546740834,-0.7716795992079061,-0.697779038213689,0.8660751748154452,-0.4005034630375199
11.563497894,-2.3398508231451554,-1.0368649745013534,2.0181964892815025,-1.2560705292854637
11.58025532,-2.415066735484932,-0.7970953763253624,1.3053240685886032,-1.0299555807252292
11.59701175,-2.1808090723748337,-0.025743179262719122,0.9045331201600623,-0.9576115694974049
11.613768871,-0.9752923503378498,0.8195739541293332,-0.655313188292893,-0.4771239562044649
11.630525819,0.8167806766437561,1.1655704832803866,-0.9497266225262437,0.06093825304378884
11.647283205,0.5825807512893327,0.5028761512794109,-0.471030769683033,0.704178825835455
11.664039878,0.14785728667535436,0.18281082678951538,-1.8094621113512754,0.3532868630852273
11.68079699,-0.00691150073188824,-0.1265216353904422,-0.981251105324055,-0.07524607829312804
11.697553562,-0.2715112434951993,-0.4337895702527113,-0.008133880508877105,-0.16636826481104725
11.714298089,0.18114136003685968,-0.2875713161735359,-0.9746984408420487,1.0157119020604308
11.731067152,0.5888855643161254,-0.05902860140634637,-1.1084500509525073,0.8882580923414463
11.747824814,1.0385133811737801,0.04690815594392503,-0.6513510323044137,0.3179781048738206
11.764581731000002,1.5494114210306593,0.13582026186213358,-0.5955300755427577,-0.3012495945980966
11.78133873,1.5228847740262255,0.047688402049198324,-0.4780750226453077,-0.11340488737859032
11.798095516,1.2615588338453574,-0.016360036437591714,-0.5526699655233167,-0.025803728800704778
11.814852769000002,1.069288527079517,-0.04166932649939138,-0.5566810263464174,0.6472575583833707
11.831606554,0.9596160253755864,-0.01900158129911445,-0.2520262159201025,0.7304742664867239
11.848369849,0.5683198538669758,-0.03843346862481259,0.1516229952967027,0.2573720396170225
11.865123186,-0.13204809639138892,-0.4160705112889498,0.17303606459392287,-0.34392900462396264
11.881880602,-0.5699082112965758,-0.468816341862619,-0.16702781895445576,-0.15460331826464455
11.898637662,-0.6358167638337742,-0.21115608771975236,0.2586024410541199,-0.10288078250140915
11.915394998,-0.5059825538509802,0.11077253276289553,0.9933931987429689,-0.8262578172440419
11.932150999,-0.49496408830005967,0.397240365242893,0.9705923588961147,-0.9901120320473349
11.948908222,-0.18092883064849496,0.5720981511254718,0.4471184034482118,-0.5201556753024482
11.965665476000002,-0.33725330114628366,0.5874316790824392,0.20944245579222318,-0.4153420231611526
11.982434896,-0.4702487511144524,0.602619239331129,-0.4572619888502766,-0.037986969239839394
11.999179159,-0.2716630767675936,0.1421787898984335,-0.1035969220432777,-0.17893212979610773
12.015936188,-0.9907220148003132,-0.5188459093838356,0.679091731284757,-1.0095761527030944
12.032693188,-1.316175867546483,-0.6510186931909564,-0.27451975520947786,-0.7355809322042048
12.049450583,-0.7714325170137888,-0.4747154815794837,-0.24983303050166913,-0.48596312983158946
12.066207196,-0.1307049743448581,-0.28604896572722427,0.02007617023274948,-0.09458340079789665
12.082964409,0.6511918228099446,0.06315194929280109,-0.47148618013790783,0.6566849598349519
12.099721052,0.6819100536920262,0.18877548047653855,-0.23154190314728615,0.11577949870869328
12.116465224,0.5468852714665375,0.2249713459831531,-0.9507360530858183,0.7274600397399273
12.133234948,0.9491227355677934,0.21113731995872684,-0.8070537750817891,0.9498739436625816
12.149992201,0.289200165859332,-0.039054081920161354,0.35360312017794454,0.01955103197379019
12.166749211,0.15244135797362274,-0.24367775422696433,-0.5049703535268375,0.43549873371448244
12.18350619,0.371752884118149,-0.2730575776776667,-0.2414304747839779,0.3379092177760419
12.200258743,0.19498096246657634,-0.24960726207902822,0.427707559423291,0.09854262595253815
12.217020086000002,0.4753430340576782,-0.026364466696430243,-0.07253451037296792,0.20932544671397582
12.233773748,0.34192216786380036,-0.1351253244343956,0.06905749271533726,0.004282504460417503
12.250534044,0.12745394813143962,-0.278709028370975,-0.3160744823311923,0.33685325997183185
12.267290738000002,-0.15365155977814182,-0.26750282616633764,-0.393401870705417,0.37648337230525364
12.284048073,-0.6291744361729356,-0.2487613628442515,0.0031348397738698236,-0.15335383600603306
12.300805011,-0.8652223443685568,-0.15745784580044245,0.11511916577543606,0.02571021787682576
12.317562031,-1.6979906417548198,-0.03727790569883867,0.2793711694274332,0.47831309192302934
12.334318694,-1.8945130620240116,0.09821192384566048,0.2522485244246854,0.1357828784548335
12.351075784,-1.3431361955069439,0.28447841943461977,0.5662001788703416,0.4074391070888869
12.367832855,-1.0005670437278702,0.5696353859771593,0.5220562696938393,0.017042803833381446
12.384590118,-0.5651675623412479,0.8821363204047974,-0.2363328393542682,0.34261472673866344
12.401346242,-0.5844444257145318,0.7877349209048199,-0.735312971592367,0.3037673859136659
12.418103791,-0.4357851818979544,0.4622282373516605,-1.0426837159120033,0.7927952178207012
12.434860647,-0.5563195412594545,0.2566249162645845,-0.3299833309651245,0.28616303680294797
12.451614666,-0.8233945065789299,0.08537843974927985,0.7412161573855632,-0.5073944557007501
12.468377586,-1.1785495720319594,0.2602022019655989,0.6176658426755222,-0.1670557714677492
12.48513136,-1.2682576587287593,0.3897127801725027,-0.041430423773435886,0.44779548305263545
12.501888705,-0.4912318560405546,0.3652292162488979,-1.0072267380779214,0.9665542559717684
12.518645856,1.3258325866140697,-0.4062206797303248,-0.08467005902337053,-0.5774805847851798
12.535402337,1.4889567090490543,-1.1532866226301273,0.785647010812714,-0.596456153715673
12.552159448,1.198136156550092,-1.0776228392170684,-1.232373682622381,0.09731588739083871
12.568916274,1.1261524783345949,-0.635960513644768,-1.0198925286589977,0.49001907898490804
12.585673833,0.7660917204980625,-0.5122803922625598,0.11869075082623266,-0.08482306128766376
12.602429997000002,1.5422915497479837,-0.09680946717418475,-0.47522464708582035,1.0581058879513356
12.619187526,1.832824093606476,0.007250122274423042,0.3868565652783168,0.7533922548396087
12.63594418,1.3453514809155007,-0.4635897923852763,0.6534817734994285,0.09072167474056606
12.652701412,0.9640921667657022,-0.5380846528924981,-1.2500973678468275,1.1332506422621011
12.669458065,1.3033044339395765,-0.7096116898021168,-0.7718327588930296,0.5040869588496216
12.686215665,1.4104406958015892,-0.765661687624904,0.891741105839039,-0.7608176067804806
12.702972196,0.7382002241934794,-0.5734140417870515,0.9075014031053324,-0.8777330309410611
12.719729367,-0.20927038762780012,0.053525778825527386,-0.13232378296457104,0.12387982151090667
12.736485736,-1.0588463548557776,0.7481584425994815,0.04046121006914355,-0.165910429700432
12.753243051,-1.837284773537001,1.0391198533133954,1.0995570337996772,0.4104477060306973
12.770000253,-2.0602641151815435,0.9750181965428592,0.5982279768283844,0.5539161895521416
12.786757528,-1.963135375280774,0.6032691136270402,0.8117129920695147,0.1408478017550599
12.803513621,-2.439763914668399,0.15892556909247166,0.817229355954188,-0.7671766823921166
12.820271088,-1.3913083545818876,0.2720702925690987,-0.38912018538172694,-0.5971722225289615
12.837024853,0.30669807928303555,0.675015289997705,0.19272225341065907,0.2569290391214503
12.853788393,2.8924145472272937,-0.05808329319677656,1.6629550135944675,1.7151758425230594
12.870541648,-0.1435531689208227,1.2706446480449514,0.2942628422323232,-0.4317299550184661
12.887298983,-0.9311594560911047,1.042084498779779,-2.9765232514309625,2.4381444765990343
12.904055799,-0.5076309363885767,0.6746459133317395,1.5151183080156228,0.4329392127854401
12.920813316,-0.012881869978799362,0.06272116097397787,2.7824032925806903,0.6693414631315383
12.937569583,0.3411943374025226,-0.23638453364465184,-0.20324637085016842,-0.14357222035380757
12.954326725,1.597174798390606,-1.0979228425144179,-1.690475889637606,0.045666872003909766
12.971083896,2.6994815286260017,-1.8100475526074047,0.3411886767590492,-0.3834150725645952
12.987843185,2.2861350077885887,-1.8945127365901329,0.5124794311712735,-0.029821569532456755
13.004595342,1.1830263936199754,-1.2932493590734255,-0.9557148028058297,0.17910199422408365
13.021354691,-0.3916407262866099,-0.8970426636037198,0.015055855066278385,-0.18883944007036327
13.038108812,-2.5363467158130844,-0.08979261871525276,0.534595086254207,-0.3904833170270706
13.054871599,-4.732741705885033,1.3711324103655445,-0.24977163210405998,-1.8691705435269241
13.071625556,-0.687111110058057,0.3536116114743687,1.1011482978199805,-0.2594319972936359
13.088382800000002,0.5885186772365623,0.48185351478998717,3.6669193004603513,-2.454163647356112
13.105139452,1.6497162027917587,0.17701154378090095,-0.9491078686059146,-0.28054860487618266
13.121896736,1.666422878533213,0.3201085455664232,-2.1554104636939697,-0.38660253010598544
13.138653349,-0.10886449149066164,0.8076407805813463,-0.6729761812369454,0.5731507012039894
13.15541047,-1.6363617601162028,0.7803048122613949,0.6177657700789276,0.09119489392662523
13.172167632,-2.2640566192392826,0.17530651986437798,0.33815832551873354,-0.16495612895072087
13.188924631,-1.8337873197104277,0.6471865092094364,-0.361400681285418,-0.7246800282150646
13.205681193,-0.8183657982969144,1.0013949669431914,1.528240861349811,-0.6119497385904924
13.222438477,-0.3889390293474125,0.3786824461960654,1.4304682601661285,-0.5766648225098814
13.239195466,0.8826983746689339,-0.407953161716423,-1.163637661385478,-0.18044107908554938
13.255952608,1.525990944152959,-0.6486157789450431,-0.9128179960174264,-0.5106872243462312
13.272708955,0.8289764228291594,-0.9350368013983817,-0.010571815221565991,-0.5853512882269545
13.289466453,0.2797369707741792,-1.064271307901106,-0.18616783409696283,-0.39558987925788897
13.306223158000002,-1.0601418291329634,-0.4366234772948221,-0.39640851584413345,-0.5659587551596215
13.322981265,-1.3413028296867058,0.14650669809802838,0.49722148933776933,-1.3129560703774392
13.339736524,0.3814353709122915,-0.20444083060887225,1.1761991147266528,-0.8526536264300437
13.356494063,1.171321319443232,0.3773739745181739,0.35739109628039295,-0.9779890175180169
13.373250889,0.6583584325893409,0.9755752604135998,-0.014289802035163212,-0.8353365373375323
13.390008508,-0.13137915731986932,0.054712341893113504,0.4620087447485894,0.17254016209623124
13.406764074000002,-0.2639980660270504,-0.8862193297881905,-0.0876851762144791,0.18648977250307794
13.423522873,-0.19463043233823715,-0.5139306961040291,-0.06731966391557784,0.2401670099253712
13.440279139,-0.11856088412089982,-0.0941006967682699,1.1377396059718767,-0.5481255128621911
13.45703622,-0.15459239010737372,-0.006786129882881935,1.0137969396520319,-0.9809557227072911
13.473776852,-0.13372590017765515,0.2551292841854361,-0.10379504217596172,-0.08515773135885248
13.490553127,-0.08488116301504527,0.5926161102963643,-0.8147445242864313,0.16710887014992737
13.507293841,0.013287637211995244,0.5351187621035962,-0.0966926026201925,0.15097518279924094
13.524064339,-0.5396771681010366,0.29208518529202593,0.2583146655677741,0.5854247522836292
13.540820768,-0.503854623042835,-0.03170076555002146,0.1860469117538414,0.4325817641485797
13.557578195,-0.12154002894094161,-0.11547446147464029,0.2565385127311186,-0.11836910869293116
13.574334889,0.6977956077563373,0.022831909065836365,-0.1429560590587341,-0.14164407188689662
13.591092254,1.5615828390936806,0.25049417607903923,-0.8696864655643465,-0.05284621141448645
13.607848562,1.9067682926375003,0.3598631867180084,-1.1236931392539928,0.4788964663708544
13.624607045,1.2744156533780453,0.17946943492468695,-0.8869471313512012,0.1326866044716561
13.6413614,0.4287887117126072,-0.16004845667389184,-1.012154647299586,0.47543540505175064
13.658120038000002,-0.02332659908359356,-0.36459536905455603,-0.4221651180196406,0.4715498632965811
13.674876935,-0.49878068774583956,-0.3457021877535531,0.14244211611765634,0.06661837969208077
13.691633801,-0.2520142617433098,-0.24016254022582145,0.28561987842741915,-0.3092441510682182
13.708390923,0.08669768064918368,-0.20098591821867431,-0.44876679159477856,0.3299942971534416
13.72514782,0.8318443330849444,-0.17022393699799032,-0.9623498257196189,0.0015579282555807684
13.741904391,0.8781882156331351,-0.11821783822799853,-0.22201938023601195,-0.47337824745853624
13.758661685000002,0.10173478082029594,-0.16358503040459005,-0.08369236435996169,-0.1302091422939355
13.775418166,-0.7995283358465933,0.07388443370514695,-0.4771839242493534,0.5044749269622754
13.7921766,-1.413459345570453,0.2081066925235452,0.3454689356012216,-0.14706197656369208
13.808932103,-1.420294602496957,0.2862997341087923,0.7952786531592366,-1.0345271327354804
13.825689387,-0.6308718255134378,0.4628826136084423,0.8695958176651616,-0.5870803426832427
13.842433793,-0.18683102979617186,0.5684795170711313,0.9990536618499553,-0.6024487319127372
13.859203985,0.20333558259477064,0.4329909172664974,0.7696126174991464,-0.1385825616970046
13.875954545,0.18134833398281885,0.1798573780887531,0.1561553901077466,-0.1346848116189207
13.892717363,0.2826685171286502,0.1281702231935435,-1.126300477327625,1.0997821577823903
13.90946129,1.0225123971610144,-0.03995612266906647,-0.08022313252190967,0.498881733259468
13.926231698,0.7205482450929798,-0.5109036928817405,1.4851538068973775,0.6970302956236492
13.942988208,0.2562229268523951,-0.6327134586956485,0.20040248320121978,0.5105137457618427
13.959745299,0.0825800433571877,-0.5069870918389391,-0.11062683405934179,0.10633913487998023
13.976502146,-0.030608855138421785,-0.2955309833198291,0.1523595469887174,-0.13975827490089596
13.993259745,0.6683133906373911,0.18403347769808256,0.46500655413080255,-0.23183030625518605
14.010016031,0.46019874418587087,0.30407685512744315,1.3455280563210539,0.9477080215603825
14.026773123000002,0.11911170735543042,0.2963450643226909,-0.01164792455781998,0.2540098596306668
14.043530284,0.41017029937590793,0.1913007224380402,-0.7744225445169385,0.4996076580694229
14.060287455,0.0060933748037758535,-0.03448979968103483,-0.40014416029127503,-0.1792019552677239
14.077044019,0.4192646873727563,-0.17446144535999708,-0.25777536478138624,0.16645404394668545
14.093801312,-0.3660749740647224,-0.4946428532464255,1.565830307446646,-0.9652013198962485
14.110557934,-2.1032389995358263,-0.48549310129947854,1.2724291676051736,-0.16325516862936393
14.127315179,-2.4092961821694976,0.23160650248875192,-1.3496624792531322,0.02634692406016808
14.144072045,-1.2488056075937313,0.6895223563785451,-0.8287828260849346,0.08768506333549686
14.160829146,-0.4396988377910586,0.4071554504141177,0.3922730531700933,0.1474764460019361
14.177586105,0.05070841605951374,-0.018090648564211727,-0.6910935432759784,0.516858992782961
14.194343174,-0.05144348985920592,-0.3868339863894321,-1.5441204310261043,0.7352662762204832
14.211099665,0.019511329114219985,-0.6725592673158922,-1.212162737974116,-1.106482705720354
14.22785697,-0.005627071180877957,-0.5290048624863547,-0.3073571252341442,-0.44515720883159443
14.24461404,-0.2001079666440851,-0.03561757177147489,-0.3097232735557008,0.1922994952169765
14.261371353,0.2637148888575456,0.38936207593474154,-0.976961530323417,1.0193825868373771
14.278127458,0.2968074653538195,0.5055323912498835,-0.7615421510520434,0.6987244382748725
14.294884986,0.6547652211992233,0.2974438424438869,-1.3945323511963865,0.8506432481196241
14.311641873,1.4935875966984835,-0.26000761571167436,-1.1042756470274302,-0.12913276696166648
14.328396004,0.9557379809454933,-0.9750218515012465,0.4410676021569189,-0.29785674571821924
14.345158842,-0.21101204073336008,-0.8871121319583529,-0.132795818954498,0.4522303270891162
14.361912616,0.08509566646148685,-0.11620257876956588,-0.44482442854707177,0.02689165655697944
14.378669767000002,0.1198674400260865,0.2924761149709692,1.1941167389870493,-0.7301123445342735
14.395427195000002,0.09071362610235668,0.5299272579345998,0.12167948215777923,0.004342538720831623
14.412183552,0.4887271018930107,0.5505145584236056,-0.5666707748085938,0.693346022104358
14.428940531,0.003376189825105172,-0.030340356622329607,0.28876708675147034,0.11066543968737205
14.445697429,-0.2036362145189369,-0.4080440062631174,0.5262542020145489,-0.6010388185693563
14.462454895,-0.8083398012794373,-0.34775315550553126,0.9979240977236047,-0.8463528917992676
14.479211436000002,-1.0717596059325263,0.03229577459195906,0.8774789613065953,-0.5076121863513525
14.49596868,-0.38491126957814603,0.6316766088349522,0.7568426432442404,-0.5526447142034184
14.512725456,0.39732247948323146,1.07826479129126,1.3138357323090548,-0.04880798417120567
14.529482576,1.1820240498597243,1.1483888564865956,0.8750251570953727,0.016593360826197983
14.546239342000002,1.5583609877820326,0.6950120343143178,0.3098616890438868,-0.69231678537852
14.562996514000002,1.1453685434187637,-0.06420852188919234,0.09431169459885835,-0.052354803967155486
14.579753513000002,1.0973724290420706,-0.5367311376549389,0.11363429206055715,0.2282510821603921
14.596510594000002,0.6396993027307053,-0.7322419106723159,1.5607944594719343,-0.43225587372383995
14.613250768,-0.3920578786550272,-0.45538507846550885,1.0764567663870064,-0.33297479452525464
14.63002449,-0.13994329873592576,0.05271578200095631,-0.09421390286215935,-0.13291103546737804
14.646781307,-0.1230830207758438,0.10870576720027472,0.5692589710882777,-0.10109120310915952
14.663538356,-0.16950417749681923,-0.04089114952984032,0.504281493662539,0.31654409464142114
14.680295091,-0.06580998232356801,-0.25369190172575745,-0.06643157785960213,-0.04150164139959087
14.697052334,-0.2804217903649697,-0.561645079716938,0.954509411954296,-0.21162520023589926
14.713806118,-0.8942140186703242,-0.39063057789215755,0.6638208693242238,0.1612777023102267
14.730569424,-0.5345101755481859,0.1454858237426309,0.018190765155208937,-0.2266414816289748
14.747322823,-0.1942373275851418,0.3028644694296722,1.5885986817678113,0.7217027722933984
14.76408029,-0.72506559570752,0.48829605975799334,1.1827880197710163,0.3356427234741288
14.780837207,-0.7520539569858539,0.8213722221668369,-0.6977872107905595,0.038386589871729306
14.797594593,-0.5853850845756625,0.5965665521330221,-0.43819330442643534,-0.39379296814500625
14.814350697,-0.31087705862295256,-0.027033457901552288,0.20715177109666072,0.15292373039492022
14.831107981,-0.3756682364116283,-0.47306909541117637,0.44606866434870635,0.6952667539773346
14.847865113,-0.8225036197993189,-0.6682205639025628,-0.09836212486653045,0.8980571705947826
14.864622356000002,-0.07017265909097696,-0.6018958015887247,-0.43110211785890296,0.07999490684978752
14.88137554,0.4334263431992376,-0.5091377249303353,1.0050528491712885,0.5442774431467939
14.898139172,0.34187348139978574,-0.03893818273369914,-0.370222516969639,-0.39310749695863223
14.914879763,1.0704504123509437,0.47151074904101054,-1.966029320713709,0.13056131458980297
14.93165021,1.0081310188095451,0.3625055856244878,-0.42318999111804106,0.5259859008903246
14.948406722,0.46760079790304304,0.305341750569563,-1.0232173751107188,-0.31069733460047966
14.965163994,0.7066135040668433,0.030533975874288338,-0.7619728602987544,-0.28517700994530515
14.98192077,-0.2714415398523438,-0.7296707473589596,1.828972064574215,0.5807828534019668
14.998678226,-1.1282304991753886,-0.6031621151111073,0.5206689397210236,0.7694559074922113
15.015434514,-0.4409207100079804,0.2711651695096404,-0.8778384395475398,-0.2056911296591772
15.032191746,0.7040592254255463,0.6904841238344674,-0.18124796978252947,-0.2622904672541888
15.048948755,2.0446481695481316,0.6597405468584155,0.3497145420520636,-0.05919969739998838
15.065705837,1.4243609731333289,0.3845907125052221,0.4221900907652327,0.1570343899838113
15.082462327000002,0.447568668799761,0.07883499909240402,-0.5895835382129602,-0.4406747674199954
15.099219753000002,-0.31376593855317075,-0.24786974720074645,0.56496524928972,0.6117902796690748
15.115974098,-1.5954328925675156,-0.7080547308985928,1.8917082558934766,-0.025773138932752498
15.132735328,-1.720736451124937,-0.47113581384471404,0.24746677263479752,-0.6138917679272324
15.14949131,-0.8806068665164525,-0.15551376972016093,-0.36931963559644976,-0.6472300974069541
15.166247628,-0.2781393551444893,0.07193672651713527,-0.2933932801391128,-0.11951895401269602
15.183004474,1.0240319935512485,0.3996975102165616,-0.685857509215728,-0.4024320807736539
15.199761972,1.026895020708326,0.02430840669069519,0.3878579537881012,-0.26416046659928977
15.216518177,0.08106253459324389,-0.3748810963620006,0.33537459002700776,-0.03943762909737579
15.233275329,-0.23804174922376292,-0.45096034069957963,-0.07408451874052273,-0.1692285588775809
15.250032542,-0.5919172503732407,-0.04414980892785323,0.014796930865868035,-0.4882774696309438
15.266789531,0.18607804279410148,0.6671062553006651,0.039065368208639865,0.3015352242566563
15.28354597,0.5684963608063224,0.9407743395800674,0.2849631612890081,0.6614654785582404
15.300290376,1.2884786804194006,0.7967620732605524,-1.1803360481144545,0.5377222361144381
15.317060416,1.6539375724005139,0.8145762092210891,-1.2743445026658788,-0.10410426514033286
15.333817579000002,1.0941983615403195,0.22091184163795927,-0.3461021941700089,-0.04893232117755957
15.350573997,0.7435884638466467,-0.5884273386589506,0.4869274933350652,0.4210194839887364
15.36733116,0.41660568961575606,-1.106731772860999,0.3212461217136872,0.3634591871205387
15.384088189000002,0.14658370592983452,-0.8617470574399235,-0.5415167044590696,0.0698777870911085
15.400845574000002,1.159113033006657,-0.3088824649693962,-0.15892783995976464,0.5136455193210976
15.4176041,0.9884983248447747,-0.1576801853697485,0.8153276305715715,0.7158912564113925
15.434357081000002,-0.20897850486029848,0.2108893684432102,-0.31121726698384017,-0.267286535187572
15.451116073,-1.0152557161388573,0.34022689384148297,-0.2977471386630473,0.06733979552208069
15.467873480000002,-1.6390115951378843,-0.03880888881178081,0.9576064414385831,0.40929659086349984
15.484629716,-1.4143145401110617,0.0312772355527129,1.2147281128685299,0.7593229172144287
15.501387284000002,-1.5248474440101585,0.17938527345805988,1.2161301901757338,-0.19436969723474865
15.518143826,-0.8291690857170013,-0.13079326988685894,0.15438749408867833,-0.6791777578677609
15.534900083,0.15536774544440296,-0.41649482181132025,0.1623866099944816,0.14353955034569446
15.551658872,0.21145469498831146,-0.31591529297881776,-0.6168554372862867,0.23839118138689097
15.568415078,0.32943113464777396,0.15569799747349874,-1.1239371240609801,0.5381943955204395
15.585171945,-0.2695758866788552,0.3981685247436948,0.1508796415017463,-0.38874469128159195
15.601929045,-1.0982532809947774,0.789519105546249,0.49801967669180397,-0.14972136652828819
15.618685597,-0.8784219046853315,1.2589779933334475,-0.025207945483549574,0.14839576963250983
15.63544281,-0.10041697630515957,0.98645850077,0.5333013073512812,1.0202909540229441
15.652200195,0.9771737118775808,-0.01979602727379178,0.07293104720543261,-0.12672472686153652
15.668957244,1.7844951661779214,-0.7156994551264547,-1.5068924521476081,-0.4801754501484573
15.685713451000002,2.2992159066712716,-1.2971232691976664,-1.640399919881469,-0.10706944468752883
15.702470786,2.0187873137815853,-1.6229036757481385,-0.7416433340963333,0.7117737211771143
15.719227876,0.8055304358240929,-1.0029464185322379,-0.5174126323608198,0.7130418002865174
15.735984988,-0.1520441236615789,0.029795602074420755,-0.46248275875674494,-0.3018894856602855
15.752741519,-0.758835994749377,0.9385041913733503,0.691291421745278,-0.4126560648419133
15.769494479,-1.0853088718896373,1.3819990554990094,1.4049789607545902,-0.4634177051654844
15.786255537,-0.9503689934778689,1.061922837734061,1.102270193224037,0.9921046535008773
15.803013045,-0.7000892533151079,-0.04579705830122814,-0.6686577404525864,-0.36631255732458645
15.819769322,0.3082403698716327,-0.9394711418932462,-1.828907959377608,-0.5233953077480717
15.836526494,0.7099360711368097,-1.2224396372035857,-0.5443908522538626,-0.6020375958018557
15.853283615,0.1786161203275668,-0.6368083271421396,0.5695901133632586,0.4581980097585363
15.870041,-0.7525813118296991,0.2946793948816779,1.1985722959479364,0.03257799505699369
15.886797257,-2.2405869425646805,1.0691073833145612,0.5209385973291593,-0.9754121651416773
15.903554398,-1.8847047720593495,1.6792387818274634,-0.027630541547344074,-0.9821961236281703
15.920311397,-0.7231297922338248,1.082891882204261,0.7457843249800787,-0.5662213461271156
15.937068672,0.2725429261331182,0.10079393697134323,0.9037666348478645,0.6768472474362732
15.953825243,0.8716316079905423,-0.6391875802761311,0.6281110959060999,0.8592559633855144
15.970582649,0.7244391059905418,-1.0443806655932604,0.37196305079506636,0.033917689190880604
15.987339303,0.8659503499686283,-0.7086401218377708,-0.6528462430886519,-0.787963245223086
16.004096465,1.1222058238800035,0.056896328666273734,0.1741110830894655,0.01803758604876469
16.020852996000002,0.4867531724800109,0.22654305841620273,1.6935017795474412,0.15573610377598215
16.037610432,0.05412575328355239,0.0477464402189121,0.8122458432894909,0.44721801346544454
16.054367462000002,-0.07944189014482325,-0.21837538381542357,-0.21337691886843635,-0.10518138933071083
16.071124451,-0.005478968874959341,-0.6204961892575789,-0.33142722607221636,-0.16370936039340528
16.087881135,0.4160723298404475,-0.6114055421738831,-0.02315887641717295,-0.19148462897843252
16.104638286,-0.09044479607698312,-0.6047503121350782,0.09069793361131219,-0.3870649130927767
16.121398113,-0.7800081189976382,-0.1718348637289661,0.08315811019815068,0.04633489532893639
16.138148125,-1.6460110368333447,0.2099846407827827,0.2873878887322852,0.153655028520824
16.154910322000003,-2.191618323594773,0.39331894421835506,-0.1431746338046282,-0.03314840033887809
16.171666293,-1.6522572961831572,0.3873594207771209,-0.4048873169567587,0.057587520168826484
16.188423242000002,-1.082516439959442,0.03947511051145275,-0.3247740360987877,-0.1170320000433581
16.205179772,-0.5857818146042402,-0.08137724778312631,-0.7499456626417611,-0.6646473543092102
16.221937504,-0.3028387702653322,0.04417867475109426,-0.8887653021922737,-0.7020836730849116
16.238693984,-0.7885364686160664,0.09733765091444216,-0.9877193700461051,-0.667434270410782
16.255451014000002,-0.9868962610893838,0.1179048452252401,-1.5157534455858337,0.1915545023253229
16.27220841,-0.7725502317344677,-0.20219331707849156,-0.8224110758931589,-0.21554337315974859
16.288964921,-0.4656278190391617,-0.7049389264067362,0.18126999694350432,0.6112188723134143
16.305721809,0.05697773666291975,-0.5775740657712837,0.23851976930672736,0.17002042980129847
16.322478837000002,0.7292381222561822,-0.36350935316517086,-0.466568505987925,-0.4435413707110718
16.339226518,2.3089768894697613,-0.07630510266418197,-0.6708343220858105,0.21076590043865134
16.355992703000002,3.037140830538541,0.18381895452213515,-3.338581687997711,1.578219508104759
16.372749998,2.0972088132414366,0.353159988067573,-1.5863512765091412,0.6190533192522504
16.389506702000002,0.29422450632128433,-0.1361121853405621,-0.4078290817601621,-0.41009086052509097
16.406260975000002,-0.27902282454052874,-0.8797364420043676,0.8498249132162184,0.8626093204977853
16.423020679,-0.6659016223138852,-1.4261734494771972,2.011092439368325,2.060980875904797
16.439777841,-0.28482414945418244,-0.9812930841557159,0.607828468674897,0.9514275338737426
16.456534586,0.27626199823408415,0.35428464114036023,0.016703925008422264,-0.18499023419569247
16.473292023000003,0.32392648201547497,1.6754601401249747,-1.1537610336879134,0.6750796650382846
16.490048523000002,0.6481839862112933,1.9587510360535185,-1.7744456713033938,-0.040695985786420454
16.506805818,0.012141160274389424,0.5541823648209657,0.6462101099381024,0.37460017322602673
16.523562725,-1.8717467840053046,-0.8084479856042591,1.9721159439738714,2.3044997183284446
16.54032009,-4.200997603269654,-1.0695328843980727,-0.15525728585705065,1.1325966613774374
16.557076459,-3.979718213663828,-0.7833264895166766,2.2067508874661073,-0.9515469203607885
16.573833621000002,-1.6072921621681722,-0.4229842426099432,1.0759251101253346,-1.1744347695960826
16.590590701,1.303066104100919,0.49460912461797873,-0.33462671073303707,0.8719167007711489
16.607347945,2.2188233932293757,0.9222608791849415,-0.9424821283084893,0.6958659428529539
16.624104211000002,1.3922890650230215,0.8525685214926056,-2.0871112249549095,-1.3744637859567705
16.640845260000003,0.0736895170931704,0.5952132040092666,-1.0968798603685128,-0.3297958556400602
16.657621617,-0.820355153243833,-0.21564832708376416,1.2549064078076873,0.1871692953172133
16.674375870000002,-1.3262171167664785,-1.0541370269694077,2.4229891071776706,0.36179775061392544
16.691132086,-1.11470419903378,-0.7493120154350202,1.3328749086429756,-0.246228899428919
16.707889218000002,0.2886303227050763,0.3080444226065943,-0.4621359948585976,-0.35128855350364696
16.724646613,2.2844461343221574,1.1303170321985248,-1.4500123371882738,-1.7623670899892767
16.741403653000003,3.488642188044967,1.312061288490966,-0.6999210263030756,-1.809593349431936
16.758160276,2.4193430663877984,0.7605057309193676,0.03483092515960137,-1.606584687774242
16.774913327,0.3880129418109046,-0.2723252372724997,0.3849912994782717,-0.23591004424275253
16.791678149000003,-1.3317827196260856,-1.204705974290879,1.4188272236998227,0.08623525369219774
16.808431619,-2.4575821277158316,-1.2766216666912846,1.335944318334158,-0.11779288901339807
16.825188150000002,-1.1802411030460938,-0.5824982805621794,1.1289426918430563,0.4179730956897682
16.841945332,0.3791144024756787,-0.18095357923022667,1.7600839547436073,0.3340680542542147
16.858702107000003,1.0622480635466225,0.17921620675738403,1.1757607118694058,0.404467140279165
16.875459432,1.3163576803914605,0.6888026061017437,0.012164703204829801,-0.4768262679951802
16.892215973000003,1.0096229725475936,0.6122152567097037,0.48503154338307075,0.2287322365489993
16.908973329000002,0.3541421920334367,0.44964382784620527,1.0687276672879433,1.1537042858977693
16.925730409,-0.2745476415245596,0.2703137945792223,1.7984199719856173,1.4692618381839684
16.942474611,-0.6904771043620166,-0.15992450433209013,1.8677652850942352,0.6097009077295297
16.959243675,-0.17658432130666252,-0.4962914585005085,1.462666595085745,0.8133716278177903
16.976001295,-0.14527909378753726,-0.5591304839246735,1.7519662313447177,1.831798056243123
16.992758182,-0.23807634124862664,-0.21211406963845256,0.3498735972240647,0.46200841512063373
17.009515353,0.31797534045591097,0.3084457907524521,0.27944927649979395,-0.01384623117834717
17.026271977,-0.3758848972752682,0.6361936100242577,0.86617733022872,0.6077580288786018
17.043028975000002,0.00035006810030365696,0.9312537688932957,-0.1838542249124822,-0.3281981065488922
17.059786147,0.4265694091340039,0.602210771754165,0.24520756038646332,0.3739913470129682
17.076543107000003,0.37596806397824895,-0.2744131074248509,0.5826853762737855,0.5073310318903684
17.093299789,0.5468009740492149,-0.7920586860406353,0.13635898737292135,-0.0589340684532411
17.110057043,-0.033819737385259785,-0.9382126380531051,-0.07915864384828379,-0.32146990449468804
17.126811276,0.02367722510776067,-0.5612319113266038,-1.3666494925130657,-1.3937160058091258
17.14357388,0.5670297058581957,-0.00538438618195185,0.2928897475427415,0.4167711739207889
17.160327369,-0.2698697960108578,0.49700810759541064,1.4564317734218255,1.4655176163857198
17.17708503,0.19649692151512732,1.2318026702534224,-1.1158342321543142,-1.0579611549064145
17.193841896000002,0.49397458330123467,1.2700892339913032,0.001147734430023331,-0.2931464433959718
17.21059919,-0.14533823825285672,0.4889526132159375,0.5284186114914011,0.41481329069438966
17.227355376000002,-0.12878580157186315,-0.14006277961282618,-0.7997851889193496,-0.6124535878252323
17.244112568000002,-0.6693277943029956,-0.9614442372245694,0.3406475914168278,0.6613361371765898
17.260869791,-0.7320652683822237,-1.1666107342906626,0.24316749472302404,0.23048324144139554
17.277626994000002,-0.5862839770850428,-0.3554274119560348,0.26259825351626725,0.23069739472552334
17.294383504000002,-0.7520262777513813,0.3343885034919415,0.1410273071895605,0.06421076551172063
17.311140595,0.052568020966652584,0.733895766013668,-0.3274840743647608,-0.11951419017124397
17.327897514,0.11388264008102969,0.5757654398270502,1.2242066641366756,1.2904561384655517
17.344654909000003,-0.16523623188369088,0.1859754228778958,0.5162270614496062,0.46823838897858133
17.361411450000002,0.6626027239954956,-0.1735635177869854,-0.9762856354371658,-0.9085385118421535
17.378168714,0.4125550802810917,-0.6217229335976868,0.5940333124661226,0.4589002596698099
17.394925408000002,0.4871082939892427,-0.6126130971903466,0.26142054194535147,0.26539102206068965
17.41168258,0.978273377805017,-0.17124288116287834,-0.5497168118754334,-0.48906017032260973
17.428439345,1.1522908143781627,-0.029609770398494616,0.6863445833107223,0.46988317005851843
17.445196548000002,0.5426706494396303,0.2683569663450955,0.8979750499779211,0.5854381515802263
17.461953394000002,-0.14886328961421283,0.3780153225732476,0.0372587291073342,-0.020484210822273006
17.478710647,0.04322460115736677,0.07937562228086253,-0.05726683131680119,-0.06265308799977252
17.495467189000003,0.07402200224609208,-0.08210669080933924,0.6326320675071908,0.5838176208609923
17.512224239000002,0.18442721887925528,-0.14081408585451013,0.3471004850437553,0.29190038356910364
17.528982621,0.3074461484522211,-0.2947078044245538,-0.5599631158054705,-0.4741436847508084
17.545737301000003,0.21925506782240825,-0.3761019379273213,-0.8266758263556622,-0.745830575772918
17.56249489,-0.18107337852874095,-0.32453577089697005,0.28615294292101007,0.23029061813984916
17.579252408000002,-0.5517438558858303,-0.24199210802769183,0.35345051025812296,0.3462302143522599
17.596009408,-0.38678904183552065,0.16430997143752155,0.042418407660172436,-0.018474283473712126
17.612761676,-0.6197160251889707,0.5186924176796784,0.8042940311583872,0.6894996484797066
17.629527759000002,-0.2953314472191945,0.7806193190821776,0.3537676592695441,0.2803977431213318
17.646280314000002,0.30867146694131814,0.6239728651668616,-0.07002032879042532,-0.10879304818312481
17.663036935,0.016456831544579196,0.15422343695459698,-0.49860304577257086,-0.5020808106943933
17.679794626,0.09519294807889032,-0.251967768288765,-1.69242657296213,-1.617642432962334
17.696550731000002,0.2000498294195088,-0.7395880652788984,-0.4364387234850314,-0.4196817380134417
17.713308005000002,-0.7927877399718017,-1.1288274251094488,0.9149260001862869,0.824536676441933
17.730065156000002,-1.3288217733410228,-0.8041144980854276,0.29458332191660225,0.18700274033122455
17.746822491,-1.3569377454875962,-0.17701885322171976,0.17234979156154573,0.07902304051283668
17.763578788,-0.337774120652101,0.5865818703208889,-0.510934650833517,-0.4844558493206132
17.780335879000003,1.0410745211701145,1.2155485611442804,-0.19166907620996554,0.19544819405690167
17.797093052,0.8071819158240103,0.9974403111029241,0.29050428423076463,0.6515746316602772
17.813850182,0.8440671206090564,0.360638738870787,-0.8487836656840286,-0.6050044310464683
17.830606875,0.3575460869871463,-0.40311297782496713,-1.0195259461709454,-0.9561722320658907
17.847363804,0.2633003151174889,-0.6259661356240798,-0.9994642519263951,-0.8744571055850521
17.864120803000002,0.6657728714595202,-0.5146306076524253,0.21246197895360397,0.28024167233145714
17.880878321,-0.4294025565105958,-0.45895497537813806,1.5917508662516051,1.6973154736452072
17.89763473,-0.8012434896012287,-0.03303176106754362,-0.3610908936658054,-0.16278256316244
17.914376461,-0.13820836944082826,0.49786568626659133,-0.5986431353384453,-0.6332356396722069
17.931148759000003,0.3687361807323477,0.5239076531522829,-0.32953263176766023,-0.45326698265291443
17.947906206000003,1.3413313520182184,0.24997897757103218,-0.6074482130088983,-0.4560989501756109
17.964662371000003,0.493257134672182,-0.483461262072219,0.0543204642679316,0.07465573532069458
17.981420529,-0.301476096906565,-0.9059262769278394,-0.8545172516322287,-1.114979299997866
17.998176043,-0.2761748341842036,-0.775449063201567,-0.5501411685099107,-0.8026647694711975
18.014933836,-0.5896197987476631,-0.4831931780221271,-0.03396536889882283,-0.2786409041733949
18.031690641,-0.39217504975015255,0.2794064708796294,-0.7008699009640331,-0.7420857448988439
18.048447713,-0.7998739173125253,0.38831243701073376,0.2491738757108327,0.18185295775028876
18.06520464,-0.8402941638403307,0.20427523559054447,-0.10432014306517637,-0.07954712456869503
18.08196172,0.13333883447312833,0.3323869972511193,-0.8341551425169649,-0.8955530423492741
18.0987182,0.10597386967482843,0.15231249157010815,-0.2586967628263501,-0.3063006858974063
18.115475414,0.5572259431270346,0.00570683679807348,-1.234704212347879,-1.2669180142226992
18.132232698000003,0.8173049541875457,0.05234125345317611,0.025766469479949854,0.16368317931703197
18.148990011,-0.4781377959220881,-0.04236129724095363,0.7590969938717823,0.5382759514222037
18.165746055,-0.17745402048105763,0.033443930382194904,-1.142739506529341,-1.1122402695431193
18.182503684,0.20316286406645087,-0.06033778960069386,-0.5729732106157397,-0.2000508253908807
18.199260643,0.529831526056459,-0.07133076538870368,-0.23729040510253258,0.06823637820216981
18.216017622000003,0.7374203268743943,0.024163322402361253,-0.18338490882153377,0.08854066604453492
18.232774326,0.23181613976366405,-0.33355346516748186,0.7696961722268776,0.763768712556863
18.249531315,0.0717841554509633,-0.4416104046749741,0.17330188414620212,0.21914104329527784
18.266275385,-0.020552493131265497,-0.11158915377780827,-0.5202878038320827,-0.4135056942223142
18.283045679,0.18649167886163184,-0.009742896128745512,0.11837789100888557,0.06235074132486854
18.299802251000003,0.30394005281262815,-0.05776181573325802,0.5231958568257384,0.3784628874491736
18.316559251,-0.3200128927350851,-0.08548537494104533,0.16533883361459642,0.18817571814055578
18.333316189,-0.7302793528177487,-0.037286684232629284,-0.6496054107964184,-0.7906751202990272
18.350073675,-0.31322090634767763,-0.00810705654799949,-0.24464334731662568,-0.26694746333756175
18.366829861,-0.6196701286204562,0.06560552608452132,1.225659371638058,1.1327613839537862
18.383584155,-1.0319313300468858,0.12146803612783207,1.0606694147728406,0.5657744693391703
18.40034741,-1.0661855841851882,-0.06178751360458354,-0.1984539343381919,-0.6125842910917565
18.417101317,-0.46037289589453456,-0.010612489096720619,-0.7667461113393321,-0.8878992575952742
18.433858133,0.6524145690047211,0.17211680806046384,-0.7633120714364794,-0.19205282605899565
18.450615263,0.8937340120254298,0.2723875920239728,-0.7814051278457818,-0.6984086526107185
18.467372273,0.5306776646135938,0.09587146057545118,-0.4992412160185752,-0.6173140391967564
18.484129292,-0.27626237184461105,-0.11392019817338497,-0.7152596689706212,-0.4327736738265075
18.500885721,0.05872391704040385,0.019288784820935285,-0.7875370944221705,-0.7452248837503708
18.517643118,0.6703878664281735,0.12448581715945505,0.6465476404308379,0.685857227208007
18.534400178,0.7002509907207544,-0.03103382243090972,0.31932258066964747,0.47897959796208395
18.551157603,1.1408822904682279,0.11440621675930987,-1.6981207803242775,-0.5013322875395803
18.567913627000003,1.5521383344802784,-0.0001218343375227348,-1.3390560068310595,-0.3918362309007939
18.584670901000003,1.2839907023120531,-0.46445179748800425,-0.45960902151730204,0.010367944874271472
18.601428001,0.5302699116978117,-0.5062837234558594,-0.42263070259735686,-0.0809248140018932
18.618185662,-0.49870696613948173,-0.4427059926345184,0.15897738967752706,0.11755535958715853
18.634938846,-1.3359650493601258,-0.17340409928687825,0.3929150436880428,-0.11484143805894334
18.651701786,-0.7590653020964913,0.3347906351050021,0.2755271279593891,0.1109207468881536
18.668446772000003,-0.0722069910680887,0.601794732332928,0.28397629519189854,0.17157810166991513
18.685210352,0.47028072004930543,0.47274327181693027,-0.09359296738573016,-0.4488347079425559
18.701972732,-0.0015799862844768618,0.17329711529973657,0.0736347096300508,0.013433992038909555
18.718727025,-0.5487709792556021,-0.18679637600982923,-0.6462167975958119,-0.6904559026895221
18.735483588,-0.2282950866979984,-0.23755953414569272,0.2793455891581477,0.1823366998854118
18.752241268,-1.0432194674021713,-0.24299191265130438,1.8651865224220052,0.6672603064818787
18.768997626,-1.0632178808506705,0.20966826902334107,0.5567819028264833,-0.3468197350889365
18.785754951,-0.540210934301171,0.5935571890425343,-0.15195208213749092,-0.49713059279047644
18.802511635,0.2029229554630028,0.48634915091687414,-0.00020393849804081093,0.020921413032982467
18.819260099,0.9387978604893493,0.17500283037937037,-0.46478092603983234,0.1469692111568017
18.836025501,0.8514229576097344,-0.29728133301207493,-0.4905725642848615,-0.2050884438906136
18.852782825,0.47385938332949296,-0.8139520778795911,-0.30373344972390254,-0.024660956149080298
18.8695396,0.15860578422740565,-0.9092204708651521,-0.11681344020097571,0.1482046047621742
18.88630311,-0.014871077699081914,-0.4500544743804212,0.3551209443360444,0.4781939934965733
18.903053487,0.5500094968318415,-0.01056579750409985,-0.09313060613868135,-0.019524429767657992
18.919808126,0.9827593511354963,0.399364467857441,0.028014134437115548,0.4380274917017903
18.936569968,0.3759886500510739,0.6005402958138087,-0.40056367784270835,-0.1379349670180071
18.95332484,0.4390078970829847,0.4541623440814117,-1.541548093240599,-1.0911848548110645
18.9700813,0.2132733138557121,0.07141025682518289,-0.9985673763985282,-0.4297164319920521
18.986838686,-0.14591721793264834,-0.16717335878765693,-0.437240050452395,-0.4551499540113314
19.003595818,-0.48262711615808407,-0.22997630352294757,0.2980220619328162,-0.003179707875876777
19.020352633,-1.047845300031311,-0.30730416115719283,1.2236593640027051,0.603866081992723
19.037093733000003,-1.1442354807108837,-0.13307743672665462,0.3247634431328741,0.39758247412591646
19.05386653,-0.608049006174511,0.2746932708623217,-0.5065988226925585,-0.4244709201563514
19.070623631,0.01971929491427623,0.38930653326055387,0.06523498218341524,-0.15573670789546212
19.087380823,0.09630199700582906,0.16238080986465214,-0.098006076776542,-0.16264473885451083
19.104136998,-0.3544540979391727,-0.10271194247020211,-0.365649120145353,-0.3668714378879342
19.120894557,-0.8398967067754265,-0.40010851525994184,0.2969853437583906,-0.1242224613750764
19.137651373,-0.9444934000539883,-0.5992472135529782,0.3442075311696851,0.03535467253037357
19.154407467,-0.46330737103365943,-0.30277425704084104,0.03764932091588945,-0.3875529129139775
19.171162919,0.05330804786572116,-0.08607697104701832,0.5690112738726292,0.18214338874775968
19.187925402,0.18952281287546224,0.10275922297446832,0.5765575137323308,0.579927046806665
19.20467938,0.5451925262720783,0.317361174731811,-0.3253439289629872,0.04305322067448772
19.221436623,0.8966384580996007,0.4090271047089894,-0.39757195313666915,-0.2762094584504294
19.238191903,1.0542971214591408,0.25255215581542684,0.19622424727072377,-0.13763983202340005
19.254951313000003,0.7062995989090367,0.2087332592498486,-0.018801967892217653,-0.14691455482255622
19.271707142,0.4357060047980972,0.14056733580794492,-0.18648044360239382,-0.0851323660162126
19.288464457,0.3554709801206669,-0.10753912317840185,-0.0916740168703128,0.06890882057117671
19.305220642,0.17253443947427397,-0.2402146904839966,-0.11504845272093295,0.21113388341702177
19.321978272000003,-0.07939339931354375,-0.24141902086020317,-0.4281043945453012,-0.2954522973821348
19.338734924,-0.14763545129669647,-0.2642576669759496,-0.21674909529504724,-0.1129592758463283
19.355504681000003,-0.3852422133371821,-0.4191833504195534,0.5428544138018065,0.6274418027253998
19.372248831,-0.5829297344639142,-0.22164032804364006,-0.3172383470957889,-0.5377585971847634
19.389006156,0.2689860713988056,0.2162948847393786,-0.6239994773769727,-0.10632389145962391
19.405763044,0.28497271799530316,0.30909674794170167,0.3065917141261696,0.46596951662176866
19.422520368,0.08235125155154568,0.45199255734547134,-0.6422963675441704,-0.30162531898138517
19.439259565,0.09754586443420554,0.3867354330581301,-1.0255196897373215,-0.45746917799122533
19.456034031,-0.2694464439772673,-0.0968178435253843,-0.054351217289677976,-0.1042567684871951
19.472791091,-0.4745909920449413,-0.24561617788974577,-0.26988046120609355,-0.23679325282665417
19.489548201,-0.4409313903719359,-0.0023096633413612856,-0.5563585350617081,-0.4035611999321778
19.506304621,0.20068071873494128,0.10477712907859997,0.09004737970724473,0.03747059445581725
19.523062047,0.1843279334113148,0.0006737379076723736,0.0017262866582844095,0.021327224316530773
19.539818852,0.4878392998744625,-0.03079389799714309,-0.7804432826471942,-0.6347146220121531
19.556572648,0.6596134372714023,-0.2531434584378335,-0.18525076883379055,-0.036631949415612576
19.57333566,0.2750862199834783,-0.5022323905782154,0.5748989449511471,0.6956927497171899
19.590089647000003,-0.4267530802898819,-0.36757204482740885,-0.21641832185833024,-0.5391238813322975
19.606847227000003,-0.36997534062484044,-0.16420647036427322,-0.936160445551402,-0.679080245629916
19.623604195,0.025389319851859424,-0.13150994223358506,0.5371601570488758,0.2982472827814686
19.640360674,-0.32776726479019314,-0.06361298998036204,1.276514103578338,0.5872777606797216
19.657117614,-0.45348589294012903,0.31957356186251473,-0.0017737635587395228,0.06955384084883293
19.673874663000003,-0.27816457013914686,0.5411882222924431,-0.6205950453000678,-0.25930459651091864
19.690631967,0.3017448926225636,0.44369387770283397,0.7848828106154894,0.4478209858010604
19.707388530000003,-0.1107992818098235,0.2324224997095073,0.47580143720495294,0.15220540724219297
19.724145884,0.4477450765926802,0.24245598731119286,-1.165201075290647,0.07798209942658237
19.740902618,0.5431805653463909,0.018903975241165164,-0.3358098201651332,0.23351559423192791
19.757659782,0.11421799747476107,-0.10408983623314612,-0.09731381802999925,0.0498434153304734
19.774416393000003,0.17026152391412386,-0.13983483457335044,-0.23859011109668898,-0.036162581391180115
19.791173718,-0.29652086524655846,-0.5913231401134498,0.2847915896491338,0.3137254996839774
19.807917107,-0.48521496366160927,-0.4282940817758685,0.2343215381805417,-0.4335452088468998
19.824690778,-0.40698302947431736,0.09570279482959324,-0.7163168539279906,-0.6908294416183789
19.841441002,0.7447868473586302,0.48925951813790947,-1.2343559496606369,-0.07350637972423342
19.858204747,1.2282921983408392,0.37020609542008126,-0.39946101728618033,0.5845911017438766
19.874958622,0.5218430802167447,0.010873997612847488,0.2175534772967089,-0.10694497748689691
19.891715824,-0.3578476459034822,-0.29153174201973353,-1.0935128792307582,-0.4685005455097044
19.908472418,-0.08922208999319053,-0.3171699384628796,-0.8809668728926519,-0.15188922245769154
19.925229325,-0.5216096375880751,-0.3458374446080816,1.1867450115597673,-0.009180693063670763
19.941986282,-0.41528582531070307,-0.0288897296694161,0.475757051116073,-0.09703954622885663
19.958743698000003,0.1911045525322302,0.4647081091424187,-0.618437821837485,-0.3086165168844294
19.975500231,0.40018073825423656,0.5457342601953112,-0.40335129905639033,-0.10484193611801443
19.992257341,0.3463072221482785,0.6475801589458068,0.21835566714501367,-0.018428624053687434
20.009014136,-0.1887293050633162,0.08425657304727055,-0.043201476118310364,-0.18029273262364054
20.025758634,-0.17770541962686243,-0.46831006035378425,-0.35456542106715816,-0.19895973123082408
20.042535938,-0.6801578411064544,-0.7031541400694648,0.5399717513005061,-0.5327317774167493
20.059275511000003,-0.7679587347110214,-0.5725678380277234,1.019414974361221,-0.22844489780874586
20.076042317,-0.3539582935696619,-0.257770764289235,0.3102354505157212,0.127842882546355
20.092799345,0.006666399221659763,0.12577737583501336,0.09828211014350705,-0.14843586164977965
20.109556060000003,-0.19032880825454895,0.5733435700198137,-0.11699408285526641,-0.15663769934959865
20.126313223,0.3886603929282175,0.6723639331567052,-0.5418728133123724,-0.3467044120224774
20.143067556,0.2945996654967316,0.2857712691013703,0.14770539526788828,0.13952454220743468
20.159830068,-0.22996679290464037,-0.2533828230919462,0.33757628668038425,0.000631040958885956
20.176583782,-0.31468011407534385,-0.2322281049805523,-0.47231990711915206,-0.12721709320451685
20.193341025,0.43622175192096274,-0.259741693721196,-0.7065095005454234,0.2399580849502148
20.210098218,0.7597824017975358,-0.04278517510268685,0.06189108277811083,0.6829770649692809
20.226855533,0.054517406728116245,-0.06498605302863829,0.5832848246695618,0.21245912258735627
20.243611982,-0.272741627483165,-0.22135789086956015,-0.4386067190837188,-0.04318412964006334
20.26036893,0.0538650000017189,-0.2511981766258873,-1.1817338367095014,-0.10919404250480956
20.277126092,0.18950829689399384,-0.02482139352736712,-0.11346245238156318,-0.08951404893503306
20.293883255,-0.051183246415228485,-0.018494143874824637,0.1692451443763232,-0.0284275032080173
20.310639836,-0.08737751230263963,-0.2805532171184668,-0.20941766820311716,0.2210444159998652
20.327396998,-0.6082680503107062,-0.3653213879084732,-0.11782566322385574,-0.22111476176923556
20.344153754,-0.5327224170892098,-0.15271993302613907,0.0023523967533727414,-0.1608858385421105
20.360911301,-0.248482112667573,0.34317317253192126,0.12212915667237503,-0.21834205129455855
20.377667873,-0.06439430758407719,0.4330396169842644,0.5262312408058395,-0.20151037861730897
20.394424944,-0.3451692002078524,0.3585784396086853,0.18847750405534908,-0.3669769116032366
20.411181861000003,-0.1301806108277953,0.2564479097163831,-0.3576177833223914,-0.12425556619191157
20.427939146,0.21452997352449937,0.040707391270845925,-0.3344708543406772,-0.009019866888126655
20.444695616,0.03629944127681083,-0.12839248468794334,-0.16834152313763984,0.16089650197087046
20.461452676,-0.7218027750250473,-0.3025399749091736,0.4226317114393943,0.29729610232713355
20.478209675,-1.001187889536171,-0.5276511542150307,0.25506535314313455,0.9711521523533704
20.494966949,-0.36210851002878636,-0.31563588254740543,0.4963688271717736,0.6358267133070469
20.511723612,-0.2969689138767417,-0.0042957564208188585,1.425228351084056,0.3483114712881543
20.528480897,0.07594509920673415,0.3775350142775738,0.2870876809167565,-0.005189236700351115
20.545237590000003,0.6356771426638033,0.6591273895433908,-1.396366146105626,0.3353950471422261
20.561982992,1.0199247735135892,0.32431516435038127,-0.9461148515288044,0.8659404689415614
20.578751577,0.5143369397020116,-0.23966679217737505,-0.5420724408832367,0.5344911579946594
20.595508984,-0.1165481943083613,-0.5614089765062408,-0.332903377394727,0.14189240594733965
20.612265789,-1.2598449845152966,-0.8923654339362256,0.4143620938666473,0.28602011236463715
20.629022809,-1.4452191293195589,-0.5747409635844043,-0.18003614169413515,0.68658111381088
20.645779279000003,-0.4378739971286702,0.07797753270808956,0.8943860767656503,0.3571234975809775
20.662536624,-0.01235290938100399,0.4299833598910123,1.1911720072328176,0.39806277829023295
20.679293715,0.8466609381424085,0.7859223849171473,-0.7524009567084013,-0.9562351488650177
20.696050755,0.9839604133180919,0.7142811928399869,-0.7759505287604862,-0.24275077658911728
20.712807204,0.8451531452403676,0.18064491153987103,-1.135545482276029,-0.4321979630811
20.729564671,0.4611106683132943,-0.25199722032400673,-1.1186737004477394,0.6833840982400072
20.746321345,-0.7333674265265596,-0.7829449642717113,0.700429560902829,-0.5840031303662941
20.763078863,-1.6875645851228145,-0.8926585526702479,1.2175660597441047,-0.22582184550263532
20.779835078,-1.9771202104833088,-0.30408466504384984,0.6920538349705566,0.23488095275406884
20.796592343,-0.9318240480714216,0.2695946790274262,0.4627109230940606,-0.044946671710007026
20.813348436,0.6043773446602795,0.8328452818766923,-0.14207900285520617,-0.8907836503258029
20.830107836,1.3277768561434928,0.9117058628345512,-0.5850758604466014,-0.4212548063085468
20.846863096,1.0591070536547202,0.6518111141321524,-1.10848096567116,-0.2162239448267326
20.863620248,0.7698300261841393,-0.10858769615568101,-0.7809535527460427,-0.7538464683464435
20.880377307,-0.05577326325725801,-0.7896210775520474,0.3995729741495032,0.436648772269097
20.897134653,-1.003276414900143,-0.9641059121807867,0.4163405951867269,0.29429407160756316
20.913891234,-0.9189338460790952,-0.6050797574834067,0.3678124562220518,0.2403487526640858
20.930648508,-0.6735685431530515,-0.08364325988915239,0.4433798827030054,-0.4326804742097217
20.947405162000003,0.09358096371861974,0.43734718846894904,-0.3085357861394739,-0.11679530688242984
20.964159821000003,0.7649750461190691,0.5532691562558882,-1.0394056809019547,-0.6282913003999019
20.980919109,1.3669859247377982,0.18196430403689698,-0.5836334546768001,-0.760877557136437
20.997676394000003,0.460935754568249,-0.027707074715953697,0.09931922909038629,-0.31593692349422975
21.014433311,0.010431546263033458,-0.009301303994877632,0.19187025943045108,0.17770566362591403
21.031190533,-0.25600425484401435,-0.06569128313634821,1.070438808080872,-0.3996279482961674
21.047947014,-0.1665059439094944,-0.057384186493447786,0.3578073153621812,-0.307552053152649
21.064701083000003,0.6888549397470242,0.4879412009321743,-0.9696369964107142,0.4635262790466941
21.081464288000003,0.7439484643339566,0.4664322871868889,-0.4672262415931583,0.003545482056686645
21.09821851,0.644348540466115,0.15734907203402249,-0.49092363791690397,-0.22979715260135553
21.11497258,0.3541677731185229,-0.17294296301103204,-0.3033465526793178,0.03883352248348401
21.131734664,-0.09977676976010938,-0.49838676069180576,0.40627107434123483,0.26679853475949883
21.148488948,-0.3572699029467318,-0.47655336322128616,0.9690790584638369,0.48076349429198517
21.16524611,-0.9186672253282219,-0.18728548995746228,0.9456880091035443,0.4835676097349996
21.182002935,-0.46716255140302215,0.1825978212495985,-0.29029689511042217,0.14827993039665846
21.198759772,0.2519586745975097,0.28284292174487397,-0.8309327091533694,0.3703075523561498
21.215517219,0.26077655510913644,0.1487399800061269,-1.0210972787609303,0.5395315452218317
21.232274208,0.6142151164128049,0.22831833177853172,-0.6924866508292005,0.4550400822410949
21.249030565,-0.390667527098517,-0.03646805718516014,1.0638493359853158,0.5583490773980702
21.265788044,-1.3735812603100659,-0.2999606247605802,0.7744979566934372,-0.4583247622935809
21.282545032,-0.8391510857050626,0.13661645490059932,-0.010765860279912172,-0.2967077992825255
21.299302356,0.0722048095375776,0.35875354008287486,0.9521667088418567,-0.021092246713771693
21.316058563,0.810819411268533,0.47339874854554265,-0.2990724639613048,0.10389533266553969
21.332800527,1.3998678047315323,0.4858346461894581,-0.845019237093536,0.5702102838416402
21.349572927,0.691247422503343,-0.0015159636098848815,-0.6527450859437879,-0.19316907809025446
21.366330171,0.5529844707548839,-0.31955916839058734,-1.3285580019294918,0.04072300959591205
21.3830866,-0.07013842176755807,-0.5297024424834412,0.04663148434404784,0.21392014223877906
21.399843710000003,-0.5508876089461525,-0.735904032723579,1.181784066509694,0.27023133475333283
21.416600832,-0.7913676954093688,-0.5920010895364329,1.4692104205548049,0.14245946648612284
21.433358156,-1.1158522260971222,-0.31025419343175215,0.7828899925061207,-0.2585176396921864
21.450110984,0.22246064880987834,0.4309815020085317,-1.1362463313937958,-0.41193737060488556
21.466874871,1.4579218742829925,1.0273515014732002,-0.8489677671512845,0.819175565476818
21.483628645,1.3260887123163,0.7132570727543852,0.24876279866346707,0.7984740125583741
21.500385979,0.24604758918095493,0.17614623057383033,-0.4281641248316849,-0.19060298179310056
21.517142552000003,-0.8549451929397895,-0.22773500514376643,0.03664277379665554,-0.17925351517385008
21.533899826000003,-1.4101628306979954,-0.5284611844346012,0.7437470006646071,-0.5186781932440293
21.55065653,-1.0115940648210213,-0.28979551877546794,0.9837886548381038,0.725236455677296
21.567413692,-0.6155539010243969,-0.02869344673612949,1.1820412433824596,0.09444423337989363
21.584170741,-0.26686875763709567,0.1632296482891963,0.686674422057108,-0.11936317084997636
21.60092773,0.009072430229165101,0.3898355716074378,-0.18866339047469668,-0.3343674278484352
21.617687701,0.4945575928548131,0.46054655230733094,-0.9747533813951723,-0.7067940211462245
21.634438799,0.7294513544529594,0.21609893186331713,-0.4760705302212798,-0.1903063984921956
21.651198372,-0.16014770115823443,-0.5841893023727474,0.7043295671697065,-0.011065824965920103
21.667955625,-0.9880890807143442,-0.8917527540445406,0.7741242519400655,-1.263771031181367
21.684712665000003,-1.2982327439390267,-0.5411615391076361,0.1048695875702238,-1.0357786059639467
21.701457824,-0.45940999103996055,0.12593682749556406,-0.461332129144396,-0.13883449024085723
21.718226145000003,0.6261190837137257,0.5868520290857691,0.2617369190964414,-0.21520164516130877
21.734983510000003,0.6531680110199589,0.7226636029702554,0.7247063137895949,-0.173293390402366
21.7517406,0.8644270695307367,0.5576801727759584,-0.43775523650455056,-0.7722251942133087
21.768497773,1.2477443920449833,0.4243083408481024,-0.39064464994619325,-0.5083581189762824
21.78525406,1.1010829236933297,0.39960561198359584,-0.4633118167948052,-0.042554429923301766
21.801998577000003,1.3308139732670252,0.18848235948767358,-0.7012940580183481,0.3965693440952526
21.818768404,0.4479294982046274,-0.40098783860358134,0.4592175922769722,0.33422541959003094
21.835525678,-1.1855098087986211,-0.5526147444870395,0.04623075545346341,0.49122982650410324
21.852282178000003,-1.4433592964303708,-0.1509457882638512,-0.5521624324406997,0.8060532536712983
21.869039126,-1.6111263970082539,-0.2072711683425136,0.5156906810642169,1.647048314863285
21.885796512,-0.6506047296087657,-0.5671843361227308,0.07308754723707192,0.7877563204946783
21.902553551,0.31119495892264,-0.36100232480480976,-0.08479867663047003,0.21840293304114095
21.919307611,0.3140320572106768,0.11207879134349599,0.3031569937949492,0.2834791236781298
21.936069687,0.5539182119127765,0.5804379862940132,-1.0731916626432743,0.42186760762234704
21.952802434,0.46166186807660486,0.7482684373878039,-1.2912813258385174,0.5587395938696869
21.969581477,0.06845452228930672,0.25378059756946975,-1.0545911096729306,0.600545663597323
21.98633811,0.27216505381059,-0.410253772511894,-0.10511875878658603,0.3773727184754098
