time,acc_x,acc_y,acc_z,absolute_acc
0.118475107,,,,
0.135238697,,,,
0.152002013,,,,
0.16875598,,,,
0.185513479,,,,
0.202269552,,,,
0.219026866,,,,
0.235783967,,,,
0.252541169,,,,
0.269297751,,,,
0.28605467,,,,
0.302811648,,,,
0.319569136,0.1888676422337691,-0.19561413178841272,-0.5704627831776937,0.6619810868726599
0.336325637,0.190363726268212,-0.1771748512983322,-0.5510964393615723,0.6379022476931283
0.353082849,0.18219295889139175,-0.14791891227165857,-0.5437454382578532,0.6190073314385748
0.369839502,0.17088505004843077,-0.11863254507382709,-0.5516035556793213,0.6114062399456202
0.386597072,0.15418239310383797,-0.11243458588918047,-0.5563495953877767,0.6165912990300455
0.403353348,0.12399330859382947,-0.10570826133092241,-0.5332693258921305,0.5915246750249622
0.420110753,0.08280955379207929,-0.10214638213316596,-0.5249098936716715,0.5783623779591452
0.4368675,0.05421347295244536,-0.09005752205848692,-0.518495241800944,0.5672470062913484
0.453624722,0.018533571312824904,-0.08142676949501036,-0.509280284245809,0.5480542487569787
0.470381385,-0.012824067225058864,-0.0778408646583557,-0.5060662428538004,0.5356034776986142
0.487138639,-0.03261338795224824,-0.08073707918326058,-0.5043893655141195,0.5300105631746896
0.503895464,-0.03311074152588843,-0.08874846001466113,-0.4925845464070638,0.5216659912648257
0.520652677,-0.020124960690736753,-0.10155407339334487,-0.4607102870941162,0.5121433727455895
0.537409239,-0.01002731298406917,-0.11898361643155414,-0.4422786235809326,0.5065392911846199
0.554166279,0.004178392390410117,-0.13473721345265705,-0.44256265958150226,0.513098566138496
0.5709235329999999,0.028260834515094757,-0.1446687579154968,-0.45875779787699383,0.5300607945767275
0.587680827,0.0637113998333613,-0.14557265738646188,-0.450577179590861,0.5248338892395964
0.604436931,0.09243378291527428,-0.13910298049449918,-0.457625150680542,0.5315219340583198
0.621194367,0.1304509416222572,-0.14532060921192166,-0.45586729049682617,0.53479358850593
0.637951488,0.1579300835728645,-0.15409007171789801,-0.43421777089436847,0.5229408221148639
0.654708457,0.16997912277777985,-0.15415156384309128,-0.42824769020080566,0.5178099720733095
0.671465222,0.17892964432636893,-0.13920617103576657,-0.42355116208394367,0.5148609408535006
0.688222161,0.18376448998848594,-0.1191555559635162,-0.4097138245900472,0.501070491645319
0.70497921,0.1807871932784716,-0.099443107843399,-0.434653361638387,0.5203395636277819
0.721736555,0.17440751194953916,-0.07488345354795452,-0.4752200444539388,0.5377298641239024
0.7384947850000001,0.16586750621596968,-0.05914566914240516,-0.48279396692911786,0.5336560082533922
0.755248325,0.14610979581872618,-0.054389039675394664,-0.48717570304870605,0.5352536102045616
0.772007064,0.1079004568358262,-0.05027395486831663,-0.49321937561035156,0.545004878019178
0.78876453,0.05943312123417851,-0.044796258211135837,-0.5036813418070475,0.5569676589057201
0.80550442,0.023013804107904403,-0.037385751803716,-0.4957403341929118,0.5499758634290743
0.82228154,-0.014365100612243024,-0.030945698420206693,-0.49967312812805176,0.5485119939058128
0.839034939,-0.03217217698693276,-0.03047164777914682,-0.5377816359202067,0.576033136907869
0.855792192,-0.023894380778074268,-0.04739378889401752,-0.5630353291829427,0.6043475364396591
0.87255144,-0.011977122475703567,-0.08024332175652184,-0.5814112822214762,0.6281092878176041
0.889303443,0.006931537141402562,-0.1081523572405179,-0.6052383581797282,0.6587611952263023
0.906062955,0.025422773013512295,-0.1251438185572624,-0.5987021128336588,0.6607938623379624
0.922820036,0.0313142923017343,-0.13066312919060386,-0.5914250214894613,0.6569394065765386
0.939573698,0.046063758432865164,-0.11944291740655895,-0.6076563199361166,0.6747789307893993
0.956333749,0.08597725133101146,-0.10462967803080875,-0.6114376386006674,0.6838630507221501
0.973090942,0.14194545646508536,-0.10220355540513988,-0.593194325764974,0.6694691523741575
0.989848266,0.1924746409058571,-0.11157747854789096,-0.5932945410410563,0.6685337612143004
1.00660437,0.2309965988000234,-0.13283819705247876,-0.6057898998260498,0.6842605001507885
1.023361909,0.2540334363778432,-0.16082049409548438,-0.6124008496602377,0.6971211188799832
1.040118825,0.2530042454600334,-0.18004054079453147,-0.6140007972717285,0.7031486148995169
1.0568759170000002,0.23890955249468485,-0.17960354437430695,-0.6057556470235189,0.6928759283771813
1.073632315,0.2236702541510264,-0.16338805854320523,-0.5856534639994303,0.6663009850929382
1.090389762,0.20652762427926064,-0.1442999094724655,-0.5544877052307129,0.6283610650706651
1.107146589,0.18893101190527276,-0.12923600276311234,-0.5344918568929037,0.6009399338358525
1.123904859,0.18480313941836354,-0.12143829464912409,-0.5295429229736328,0.5939575252099242
1.1406596720000002,0.1824039903779824,-0.11608371138572689,-0.523749033610026,0.5878406083676648
1.157417474,0.17413899675011632,-0.10579351087411241,-0.5299700101216634,0.5899775684834174
1.174174636,0.17629867419600484,-0.08851291239261622,-0.5417336622873942,0.6005324740415791
1.190929255,0.18377249563733733,-0.07435613870620723,-0.5303695201873779,0.5928423710528848
1.207690771,0.1843384765088558,-0.05790728827317552,-0.5274134476979574,0.5862662280337027
1.2244454,0.18894573673605916,-0.04178504894177115,-0.5216703414916992,0.5758351296328347
1.241202601,0.1870470171173413,-0.037106206019719416,-0.5099533398946127,0.5632011687373232
1.257959419,0.1839400976896286,-0.04044367869695025,-0.5193163553873698,0.573084838374349
1.274716325,0.1890286679069201,-0.04938594996929166,-0.5206441084543864,0.5775332156574581
1.291473294,0.19535941258072853,-0.06506575644016264,-0.5203609466552734,0.583015819283531
1.308230212,0.20356120790044463,-0.07810030380884804,-0.5327861309051514,0.5992801553797587
1.324987638,0.20259729151924452,-0.08603783448537189,-0.5405367215474447,0.6068124513003311
1.341744128,0.20059146111210188,-0.0980547120173772,-0.543904701868693,0.6096744324026694
1.358501474,0.19760994240641594,-0.10944340626398719,-0.5340978304545084,0.5989218234902166
1.375258148,0.18030555670460066,-0.11495180428028103,-0.5211656093597412,0.5788076022887113
1.39201536,0.16244815414150554,-0.10456244150797522,-0.5273559093475342,0.5773039765426754
1.408772084,0.15871678416927654,-0.0905206054449081,-0.5219337145487467,0.5715573872010744
1.425529298,0.15864979848265645,-0.07653506100177762,-0.5148948033650717,0.5634948737275539
1.4422731830000002,0.1718674525618553,-0.05925753215948737,-0.516100804011027,0.5628644280780466
1.459043255,0.1939523617426554,-0.04725248614946998,-0.508476177851359,0.5572318626412089
1.475799928,0.20750154306491211,-0.046655088663101175,-0.4929264386494954,0.5499256198415204
1.492557192,0.19279238333304718,-0.04802449544270831,-0.506540060043335,0.5595231489524211
1.509313753,0.18368725478649137,-0.052994052569071436,-0.5217768351236979,0.5722627463375315
1.526071527,0.19172823925813035,-0.06840459754069644,-0.5050957202911377,0.5674947730256986
1.542827874,0.19731974850098288,-0.08764325082302092,-0.4880181948343913,0.5623413005890406
1.559585157,0.20112101485331854,-0.09944352507591248,-0.49765721956888836,0.5744448158317731
1.5763415870000002,0.21128716568152106,-0.10516576965649921,-0.48777103424072266,0.5717146626049331
1.593101302,0.21550843616326645,-0.10870679716269173,-0.47513612111409503,0.5609390135865809
1.609854181,0.21602819487452504,-0.10288951297601064,-0.4868057568868001,0.5731300674150551
1.6266129,0.22110958397388458,-0.09254860877990721,-0.4905100663503011,0.5805668311071536
1.643370153,0.22794819374879202,-0.08760581910610195,-0.4818802674611409,0.5754220327031465
1.660127295,0.22577636440594992,-0.09014906485875446,-0.47610894838968915,0.5696662368923789
1.6768834190000002,0.2152757570147514,-0.09325406700372696,-0.49148376782735187,0.5784983198764316
1.6936406940000002,0.22087972114483514,-0.09189112236102424,-0.4848971366882324,0.5725010373944428
1.7103978350000002,0.2048608474433422,-0.08307252575953801,-0.45930989583333326,0.5445619580425874
1.727155129,0.15764376148581505,-0.05663540959358213,-0.47287607192993164,0.5469296222380228
1.7439116200000002,0.11770607406894362,-0.021077337364355714,-0.4820728302001953,0.5448287876227226
1.760668517,0.07706482584277786,-0.004612329105536144,-0.4470168749491374,0.5105675356783307
1.7774255570000002,0.03531216333309808,-0.004889446000258133,-0.4509137471516927,0.5096395208684068
1.794183003,0.02544008443752924,-0.014399833977222434,-0.46302199363708496,0.5176939154101111
1.81093986,0.025385264307260503,-0.03159834692875543,-0.4479356606801351,0.5016707563310066
1.827696666,0.03449768324693043,-0.04733886073033013,-0.4574410915374756,0.5125562019464909
1.844453492,0.05217306812604267,-0.056103420754273714,-0.47484572728474933,0.536712261398301
1.861197582,0.06272633125384648,-0.05574197322130201,-0.48304136594136554,0.5486011486847856
1.877967358,0.07779652128616969,-0.04885789752006528,-0.49044164021809894,0.5590967176950766
1.894724611,0.08961434165636699,-0.048809491097927066,-0.4807597796122233,0.5545081151353942
1.911481488,0.09886770819624265,-0.059449002146720865,-0.4682428042093913,0.548199575865596
1.928238549,0.11971929048498471,-0.07610649367173511,-0.458865483601888,0.5369175557195311
1.944995344,0.14075899496674538,-0.0878325154383977,-0.44867602984110516,0.5230489976063174
1.961752547,0.1684437431395054,-0.08475879331429796,-0.46199552218119305,0.5308657042782583
1.978506331,0.20146221915880838,-0.07309543093045551,-0.47217361132303876,0.5397124910848027
1.995269749,0.2215839078028997,-0.0672151098648707,-0.47438645362854,0.5486148889767416
2.012024256,0.23320883512496948,-0.06920838852723438,-0.48347043991088867,0.5623444594526567
2.028780401,0.227791095773379,-0.08020524680614469,-0.47393568356831867,0.5535452076337942
2.0455373690000003,0.21071076641480127,-0.0941277518868446,-0.4493522644042969,0.528123271467967
2.062294725,0.19222567230463028,-0.0968411490321159,-0.4387887318929036,0.5119410517637195
2.079050839,0.17770514885584512,-0.08563196907440818,-0.43778181076049805,0.5041467897590234
2.095808173,0.17649744699398676,-0.06370518108208971,-0.43908945719401044,0.5014421524075556
2.1125653250000003,0.183569073677063,-0.042645561198393474,-0.44669564565022785,0.5038392935213263
2.129322568,0.19854865968227384,-0.032251439988613115,-0.4594322045644124,0.5161010457863113
2.1460790490000003,0.21216524144013718,-0.036729363103707606,-0.46541261672973633,0.5262323670237953
2.162836038,0.21499031285444892,-0.0510226413607597,-0.4746080239613851,0.5364847340221708
2.1795929750000003,0.21007743974526719,-0.06980226188898082,-0.4794413248697917,0.5398636425120501
2.196351786,0.1889501611391703,-0.08620108415683107,-0.4724246660868327,0.5282239673083615
2.213106995,0.16317077477773026,-0.0921110386649767,-0.47861846288045246,0.5270124049901257
2.22986379,0.14840039114157355,-0.08595138043165201,-0.4935433069864909,0.5343331801475152
2.2466209310000003,0.1381002639730771,-0.07464465002218879,-0.5036842823028564,0.5351766009674691
2.263365073,0.1427000984549522,-0.07266120612621303,-0.4922207196553548,0.5259222612113986
2.280134776,0.14007275551557538,-0.07642570634682969,-0.47792577743530273,0.5117027487880201
2.2968920820000003,0.1319913864135742,-0.07456692059834795,-0.49436791737874347,0.5246452393198381
2.3136487960000003,0.138758639494578,-0.06115949650605515,-0.5167622566223145,0.5497678420349582
2.330406211,0.1513713548580805,-0.0423951943715413,-0.5100404421488444,0.5508796958475224
2.347162692,0.16052505125602082,-0.027905091643333418,-0.5080551306406657,0.5536248200252029
2.363916701,0.16890788078308103,-0.023444260160128266,-0.521950880686442,0.5687420663134735
2.380680108,0.1805189400911331,-0.02574541171391803,-0.522299607594808,0.5735221226464295
2.397433913,0.1938479791084925,-0.02756707121928531,-0.5174517631530762,0.5738164983990944
2.4141906580000003,0.2076676785945892,-0.03093099345763523,-0.5105265776316324,0.5707379682629016
2.430947809,0.21901326626539228,-0.030239539841810843,-0.5004445711771647,0.564330066125052
2.447701808,0.2211964204907417,-0.021024408439795163,-0.49803868929545086,0.5620326270784977
2.464464881,0.22105172773202256,-0.0011377260088920524,-0.5131818453470866,0.5761650508411028
2.481218186,0.23767784486214316,0.015777361889680225,-0.5187074343363444,0.5902486544895553
2.497975776,0.2543453276157379,0.01434542487064997,-0.5045859813690186,0.5838877734287241
2.514732735,0.26106423387924826,-0.005670376121997837,-0.494889497756958,0.5763764355483213
2.531490008,0.25353668630123133,-0.035219448308149964,-0.4875892798105875,0.566813604217576
2.548246214,0.23388378322124478,-0.06174488365650174,-0.4891316095987956,0.5645330760944347
2.5650034070000003,0.22456242640813187,-0.07390304158131279,-0.487506628036499,0.5626056772545128
2.5817605780000004,0.218923511604468,-0.07161627461512882,-0.4827570915222168,0.5555694723204064
2.598517832,0.21692113329966858,-0.059729655583699526,-0.48480574289957673,0.5537055593024087
2.615274292,0.2192938427130381,-0.04326351483662922,-0.47849376996358234,0.5470281520777153
2.632031372,0.2101850236455599,-0.0317177524169286,-0.4626453717549642,0.5286631357056405
2.648792582,0.20403700073560074,-0.03486174841721853,-0.45067516962687176,0.5154110532688598
2.665545686,0.18934594591458634,-0.05007010698318481,-0.4451145331064859,0.5060968483481775
2.682302207,0.1646897494792938,-0.06722023089726764,-0.4524180889129638,0.503029011837454
2.6990595,0.14444247384866074,-0.07901456952095029,-0.46256057421366376,0.5048306677183628
2.715816134,0.12518221884965894,-0.08186634878317513,-0.4551715850830078,0.49168318712446685
2.732573631,0.11188088109095888,-0.07387337585290271,-0.44821389516194654,0.47839038334146383
2.749330102,0.11611396571000414,-0.06015045195817945,-0.4323550860087077,0.4605509749387948
2.7660873350000004,0.11032530168692267,-0.043184489011764506,-0.4097676277160644,0.4345734629413718
2.7828441610000003,0.10819086680809653,-0.029081806540489172,-0.4109559059143066,0.4338823797965858
2.799588383,0.11717941860357917,-0.021726588408152243,-0.4108714262644449,0.43844598980761007
2.8163579860000003,0.12474743525187171,-0.022270341714223207,-0.4135590394337971,0.4445431405987616
2.833115138,0.14775400608777997,-0.025399943192799878,-0.4428652127583821,0.48084273723191123
2.849872035,0.1790545855959256,-0.02773355940977731,-0.4669544696807861,0.5170833186999758
2.866629227,0.206599881251653,-0.03336879611015319,-0.47075096766153973,0.5300690792043273
2.8833856260000004,0.22669967512289682,-0.041270196437835686,-0.4577675660451253,0.5258675464997528
2.9001431340000003,0.23511095096667603,-0.04587738712628681,-0.4420564969380696,0.5144953072074313
2.916900225,0.24750682959953943,-0.044627676407496125,-0.44467918078104646,0.5204965221345407
2.933657021,0.2663179486989975,-0.04056428869565327,-0.4528483549753824,0.5351747109476221
2.950413633,0.2835395981868108,-0.03689345717430114,-0.4702003002166748,0.5583706679202854
2.96717105,0.31522687276204425,-0.03974685072898864,-0.4890743891398112,0.5899498525247534
2.983927773,0.3310921713709831,-0.048714131116867045,-0.4953290621439616,0.6027248131577826
3.000685281,0.32445946087439853,-0.057176465789477014,-0.5156939824422201,0.6179041379119238
3.0174357400000003,0.3170213575164477,-0.06299364566802977,-0.5217756430308024,0.6198602910361076
3.034210287,0.29245459040006,-0.0720636943976084,-0.49808867772420246,0.5889415407209914
3.0509558510000003,0.26386092106501263,-0.07526455819606778,-0.4796312650044759,0.5595556536146007
3.0677130750000003,0.24318567415078482,-0.06880108515421547,-0.46310607592264813,0.5349164010871175
3.0844695040000003,0.22849351664384207,-0.055516685048739085,-0.4637128512064616,0.5276010784026356
3.101226574,0.23446821421384811,-0.03762693703174589,-0.47457655270894367,0.538786651637098
3.117983767,0.24071665853261948,-0.02487571040789284,-0.47466452916463214,0.5416465339410048
3.134740776,0.23734003305435178,-0.020319099227587376,-0.48154489199320477,0.5457517599166085
3.151497693,0.22246576100587845,-0.023471891880035397,-0.4849386215209961,0.5422911649902907
3.168254429,0.19219039380550382,-0.032459395627180726,-0.4805014928181966,0.526722849445053
3.185011448,0.16996060311794278,-0.04030130306879679,-0.47482713063557935,0.5145946670409981
3.201769027,0.15469554563363389,-0.048693977296352386,-0.44714728991190583,0.48661813111360713
3.218525354,0.13809887319803235,-0.05797785520553589,-0.4202095667521158,0.4598533452837626
3.235286046,0.13142925749222434,-0.05858714381853739,-0.4262734254201253,0.46480019435280956
3.252035782,0.12933084120353058,-0.05205523967742919,-0.44508441289265943,0.482058891098224
3.2687966160000004,0.13695017000039414,-0.045351435740788766,-0.4519304434458414,0.4911719840954088
3.285552995,0.14736273388067878,-0.04453008373578388,-0.4420242309570312,0.486826251208434
3.302310635,0.14671554664770758,-0.04987654089927673,-0.43052895863850904,0.47610631251514407
3.3190676440000004,0.1374442080656687,-0.05401852230230967,-0.41272346178690583,0.4558585837412008
3.3358243790000004,0.1202801888187726,-0.05423170824845632,-0.3929688930511474,0.43133614908756696
3.3525809100000004,0.11571065584818518,-0.04480859637260437,-0.3890831470489502,0.42620882730485166
3.3693384280000003,0.12136126061280565,-0.030456068615118678,-0.3835260073343912,0.42078198842488823
3.386095194,0.12514405945936835,-0.020813286304473877,-0.37715299924214674,0.41377875924221685
3.4028523450000003,0.13086895644664762,-0.016417833666006732,-0.3775481383005777,0.4138479878425964
3.4196089570000003,0.12977458536624906,-0.017764570812384303,-0.38553301493326814,0.421310709523502
3.43636614,0.1279104153315226,-0.02172013620535534,-0.3787983258565267,0.41603776085155775
3.453123321,0.12129835039377208,-0.02899792790412904,-0.35099490483601886,0.3891104287313432
3.536908094,0.10994295030832286,-0.0362043430407842,-0.3331476052602132,0.3686167709588979
3.553664625,0.11180783311525977,-0.033437535166740424,-0.33307234446207684,0.37002138929636214
3.5704220510000004,0.10824753344058986,-0.03688827653725941,-0.33826565742492676,0.3727790343428301
3.587178858,0.10565940042336779,-0.0475010424852371,-0.35979922612508136,0.3920220415870599
3.603936375,0.10466897239287692,-0.06430407613515851,-0.36621570587158203,0.40183803991647743
3.620692509,0.08932081485788024,-0.08548141519228614,-0.3416336377461751,0.3851040371449817
3.637449763,0.05935310944914816,-0.10179896404345827,-0.3110954761505127,0.3678480767164653
3.654193731,0.028108281393845847,-0.10292574018239971,-0.2957439422607422,0.3589871405031131
3.670964188,0.014760658144950865,-0.08765376359224318,-0.3026736577351888,0.36409741386997735
3.687720567,0.024880871176719662,-0.0643432686726252,-0.32025965054829914,0.3805048966036692
3.704477698,0.04805325468381246,-0.050539625187714855,-0.33696826299031574,0.40024177325189636
3.721234565,0.06685327490170796,-0.05455612639586129,-0.35400978724161786,0.42197110885372086
3.737991911,0.0625113050142924,-0.07268878072500227,-0.37192551294962567,0.44538096908741504
3.754748553,0.028406263639529555,-0.09531301756699878,-0.37973594665527344,0.4515761927212798
3.771505765,-0.00488023956616718,-0.09795528153578438,-0.3656480312347412,0.4392224389859766
3.788262562,-0.02955942849318185,-0.07852341731389363,-0.3379819393157959,0.4146396445283805
3.805019988,-0.033530995249748195,-0.04337707906961441,-0.3308757146199544,0.41109451928310947
3.821776407,-0.01615519945820169,-0.009243155519167589,-0.3439501126607259,0.4217265479712064
3.838533701,0.018277792880932512,0.008686217168966918,-0.3735792636871338,0.4400048463999149
3.855290446,0.06048742930094403,0.0020050654808680055,-0.39909791946411133,0.46359640130814334
3.872047618,0.08294934034347536,-0.028048967321713764,-0.4031396706899007,0.4767189312969924
3.888804261,0.08011473963658017,-0.06310236950715382,-0.3954126040140788,0.4756485359124231
3.905561331,0.06144997477531434,-0.0827217325568199,-0.37427687644958496,0.45519013525182067
3.922318616,0.04551107933123907,-0.08005402982234953,-0.34881162643432617,0.42688763239996175
3.939055503,0.054010351498921715,-0.0578962539633115,-0.3339792887369792,0.4073798464682062
3.955831994,0.07847619925936063,-0.03380317489306132,-0.3262227376302083,0.3963281740599924
3.972576602,0.10691340019305545,-0.023429388801256834,-0.3347307046254475,0.4020769833382585
3.989346113,0.1319422721862793,-0.031742200255394,-0.355116605758667,0.41903152261464355
4.006103744000001,0.14148378868897754,-0.05430525541305544,-0.35930196444193524,0.4174412032356616
4.022859908,0.13122036059697467,-0.07563698788483937,-0.35648218790690095,0.4084114815483794
4.039604049,0.11384529372056322,-0.08346662422021228,-0.34986623128255206,0.3977030984215531
4.056374324,0.08838872114817298,-0.07477940370639163,-0.3305855592091878,0.3720299801123246
4.073131567,0.0687129398187001,-0.05247661719719568,-0.31845426559448237,0.34998534977733803
4.089887915,0.05922798067331309,-0.027573930720488225,-0.31417965888977045,0.3367552928123145
4.106645016,0.0557232225934664,-0.014192769924799594,-0.3249061107635498,0.3416480566942819
4.123402361,0.05811136960983271,-0.01292753219604491,-0.3495324452718099,0.3642412105871194
4.140159441000001,0.057868798573811796,-0.02203649779160816,-0.3769722779591878,0.3914341184120249
4.156915891000001,0.06466248383124665,-0.03423477709293363,-0.39686910311381024,0.4120343426672495
4.173672951,0.06911548227071758,-0.04735478262106574,-0.3852608998616536,0.4049783989011009
4.1904299300000005,0.062116980552673305,-0.057584851980209295,-0.38008840878804523,0.3990039600654625
4.207187295000001,0.0680148676037788,-0.05779373149077093,-0.40549389521280926,0.4249544560640813
4.223943826,0.08571135997772213,-0.05428981781005856,-0.4160544077555339,0.4397059828176466
4.240701120000001,0.10610146572192508,-0.04966201384862262,-0.42215259869893385,0.45117579977378636
4.257457754000001,0.13537552704413727,-0.0440848370393117,-0.4445204734802246,0.4802584669548326
4.274215078,0.16119553148746488,-0.04424744844436642,-0.4585444132486978,0.5010845503414918
4.2909717,0.18499137957890824,-0.04830517868200935,-0.46941447257995605,0.5178049136208093
4.3077290260000005,0.20653753479321793,-0.04971313973267869,-0.4731767972310384,0.5275987196114899
4.324486096,0.21838246037562684,-0.051037043333053554,-0.4674307505289714,0.5262403615567818
4.341243125,0.21821430325508118,-0.05102549493312832,-0.4589653015136719,0.518054590802974
4.357999443000001,0.20186416059732434,-0.05059782663981118,-0.4597455660502116,0.5151952520184814
4.3747568590000006,0.19220881909132,-0.04715729256470994,-0.48649247487386066,0.5351843231280592
4.391513747,0.1993382150928179,-0.04358385999997453,-0.4864651362101237,0.5366625425584199
4.408271061000001,0.18962544202804563,-0.047414223353068,-0.4594082832336426,0.5088220773873444
4.425027368,0.1758841127157211,-0.052243083715438815,-0.46346815427144367,0.5089868392104593
4.441784642,0.16419139007727304,-0.05748426914215083,-0.4544078509012858,0.4961612337029884
4.45854163,0.14023944238821662,-0.06144635876019791,-0.4274342854817708,0.46238361469709127
4.475298925000001,0.12551180521647132,-0.052562599380811016,-0.4235674540201823,0.45376692692911597
4.4920553850000005,0.11788558711608248,-0.03847793241341905,-0.4157247543334961,0.4442001103915996
4.508812374000001,0.1118068620562553,-0.02647420267264046,-0.4070322513580322,0.43372983657775627
4.525569607,0.11072082817554468,-0.01495153208573658,-0.4030460516611735,0.4287315905951079
4.542321398,0.1133789718151092,-0.011703347166379274,-0.3950321674346924,0.421205576041489
4.559080136,0.12695782631635663,-0.015438626209894798,-0.3837490876515706,0.41406727502163193
4.575843514000001,0.13385461519161856,-0.02093039453029631,-0.36006704966227215,0.39544100357527073
4.5925972680000005,0.1357188522815704,-0.02217891812324523,-0.3511599699656169,0.3888912868147026
4.6093546320000005,0.15532374878724411,-0.017363761862119024,-0.3553305466969808,0.40094676005578433
4.626111256000001,0.1768283570806185,-0.014060184359550455,-0.3435599009195964,0.39915267114659597
4.642868337,0.19447116553783414,-0.010241543253262823,-0.3545309702555339,0.41679139728716547
4.659620584000001,0.22073025256395337,-0.01074592769145964,-0.37113793690999347,0.4430861415274176
4.6763871770000005,0.23173359533150986,-0.0238759120305379,-0.35152514775594074,0.4316077173983683
4.693139059,0.22466021031141278,-0.037374426921208674,-0.33514102300008136,0.41317302690935404
4.7098963220000005,0.2150284101565679,-0.0429433832565943,-0.3363825480143228,0.41054966751436844
4.726653139000001,0.21302290260791779,-0.04138141373793281,-0.3280913035074869,0.40279578207949807
4.743410229,0.2159847617149353,-0.03015039364496865,-0.30901296933492023,0.388916646733611
4.760166862,0.21753658602635065,-0.014212593436241138,-0.30261516571044916,0.3835759280321189
4.776924472,0.22390366097291312,-0.0006243387858072905,-0.3078095118204752,0.3901057767558264
4.793681186000001,0.22524180014928183,0.005132521192232767,-0.311457872390747,0.3932466972782515
4.810438114,0.21794680009285608,0.005489379167556765,-0.31278673807779944,0.3900705298359293
4.827194869,0.20446406553188956,0.0038492530584335323,-0.3109442392985026,0.38087943217590703
4.843952020000001,0.1868787407875061,-0.0026699155569076534,-0.2999473412831624,0.3637606478832522
4.860709101,0.1662578756610552,-0.008788406848907469,-0.2873940467834472,0.3436942870324617
4.8774660910000005,0.15607042113939917,-0.010752186179161067,-0.28348159790039057,0.3347038362464698
4.894222489000001,0.1629485338926315,-0.009561195969581594,-0.2750857671101888,0.3321903667748009
4.910981227000001,0.1699348762631416,-0.006564666827519729,-0.2654426097869873,0.32591757266764426
4.927735613,0.17694998284180954,-0.0019502540429433117,-0.270944595336914,0.335425490822491
4.944494229,0.18768925716479615,-0.0012896358966827334,-0.2756863435109456,0.34669590277751894
4.9612503740000005,0.1896274164319038,-0.005755335092544552,-0.2657509644826253,0.33956675853116375
4.978007871,0.18297504136959708,-0.011006847023963916,-0.26859680811564124,0.3383355657835774
4.99476485,0.18209462612867353,-0.0166332572698593,-0.2658840815226237,0.33617536021550287
5.011522103,0.17583093792200086,-0.022464796900749196,-0.23881872495015458,0.31492930173503475
5.028278564000001,0.16746016095081961,-0.020697976152102133,-0.22250167528788245,0.29657049739456154
5.045035512,0.17316158115863797,-0.007887482643127433,-0.22404599189758292,0.2999106620719136
5.061792734,0.1925956383347511,0.00746270020802816,-0.21156970659891758,0.30410912388103245
5.078549947,0.2063219274083773,0.01923687756061553,-0.21029027303059888,0.3130184107300205
5.095309438,0.22381122161944703,0.023692955573399843,-0.23971128463745114,0.3459502950535962
5.112060538000001,0.2415758371353149,0.014656196037928249,-0.23770014444986973,0.3573901040888532
5.128820313,0.23292129486799237,-0.004121390481789908,-0.2206048170725504,0.3415846398880497
5.145577923,0.2151932964722315,-0.015197552740573874,-0.22232309977213538,0.3310628571237545
5.1623343120000005,0.19690372298161185,-0.01855476945638655,-0.21215200424194333,0.3126363928129712
5.179091647,0.18306873738765714,-0.013718746602535243,-0.19756356875101722,0.29548190583433176
5.195849735,0.1779495055476824,0.001421588162581127,-0.20679728190104163,0.302131229949165
5.212604272,0.19041394442319867,0.01560841252406437,-0.22952191034952796,0.3241628117345433
5.229362216,0.2120926479498545,0.016619108617305745,-0.2433795928955078,0.34855622919370854
5.246119471,0.21541750431060788,0.006089610358079274,-0.2517108122507731,0.3572486319206425
5.262876205,0.20921970655520752,-0.004017042617003115,-0.27125159899393714,0.3643798882368234
5.279633448,0.20459695657094315,-0.00964495291312534,-0.26258007685343426,0.35676108278990376
5.296389695,0.1830858339866002,-0.0067866668105125245,-0.22884877522786454,0.31847187514832326
5.313147152,0.17026437819004056,0.008751325309276595,-0.2344880104064941,0.31404057810220526
5.329904364,0.18376160661379493,0.02639366189638774,-0.24803217252095536,0.33058581686905636
5.346661293,0.20178566873073575,0.0329055239756902,-0.24312893549601236,0.33913084799403787
5.363417701,0.2223594139019648,0.02975638210773467,-0.25922568639119464,0.36358164374408747
5.380175199,0.23904660344123838,0.015211341281731926,-0.2729838689168294,0.3829760098376887
5.396932158,0.2366896842916806,-0.005860095222791022,-0.2566068967183431,0.369124248692629
5.413689309,0.2182577053705851,-0.017926370104153922,-0.23597534497578934,0.3424391173161747
5.4304457070000005,0.20016535868247345,-0.014359315236409492,-0.2197941939036051,0.3183602637943334
5.447202871,0.1924604848027229,-0.0007284780343373558,-0.19322347640991208,0.2941458890842911
5.463959849,0.18374038487672803,0.01321052511533101,-0.17615763346354163,0.27851057989448663
5.480717386,0.18356562405824658,0.02563216785589853,-0.2044277985890706,0.2976067542762844
5.497473848,0.1988973766565323,0.028208484252293897,-0.23424069086710608,0.3295029687962606
5.5142307740000005,0.1982346549630165,0.01570993165175119,-0.22111360232035315,0.3183037906307073
5.530966992000001,0.1773276329040527,-0.0035876010855038962,-0.20605182647705075,0.2981659690880579
5.5477448140000005,0.15132024387518564,-0.0167462925116221,-0.21258290608723954,0.2926770225809724
5.564501498,0.13519319395224252,-0.01672430833180744,-0.1972437699635823,0.27120581795730375
5.581259035,0.13060499976078668,-0.0027155553301175337,-0.16384212176005042,0.2493454220242531
5.59801572,0.13934968908627826,0.01802827417850494,-0.1589231491088867,0.2501999118710251
5.614772943,0.15749084204435346,0.033877730369567864,-0.1814502080281575,0.2789609341368642
5.631529595,0.17761604984601334,0.03774398565292358,-0.19877878824869788,0.30578518126480897
5.648286859000001,0.1914430384834607,0.028616090615590412,-0.20816167195638022,0.31990616302302666
5.665043533,0.19675191988547638,0.012976586818695074,-0.21885005633036295,0.328530617885431
5.681800685000001,0.19040791193644202,-0.0038586209217707185,-0.1997408866882324,0.30863660435719803
5.698557581,0.16582693904638288,-0.015345737338066082,-0.16635942459106443,0.26927464169889254
5.715314479000001,0.15182228883107501,-0.011435046792030322,-0.17236034075419104,0.26635065845167294
5.7320717430000006,0.16320587694644925,0.0058442031343778,-0.18579912185668943,0.2782162021749527
5.748828701000001,0.184244488676389,0.020299911499023427,-0.18561919530232743,0.283414402485181
5.76558511,0.20294519762198127,0.02705913285414376,-0.20211752255757645,0.3073012504128283
5.782342476,0.21380092948675153,0.024165516098340323,-0.21788160006205234,0.3196113156953187
5.799087827,0.21125682195027662,0.014674310882886234,-0.2142903804779052,0.31374614157088465
5.815857360000001,0.19982313116391495,0.00623124341169991,-0.1936412652333577,0.2900108415131199
5.832613229000001,0.17618729422489798,0.0035135149955749247,-0.17542950312296546,0.2605895358223404
5.849370472,0.1642611722151438,0.006872519850730866,-0.18228292465209958,0.2587450620952103
5.8661272890000005,0.16484758009513215,0.012620091438293415,-0.173891544342041,0.2526512535049146
5.882884542,0.1612567827105522,0.014849081635475117,-0.1574470202128092,0.24400533598222462
5.899640899,0.1660795037945111,0.014338746666908223,-0.16332761446634925,0.2502563044471307
5.916398185,0.1684071322282155,0.012048865358034745,-0.1564986705780029,0.24457214925677018
5.933155325,0.16264816621939338,0.011489326755205758,-0.14256437619527176,0.23167260261230813
5.949912589,0.16237464547157285,0.0170796066522598,-0.13775801658630368,0.22978954638268423
5.966668734000001,0.16302096347014106,0.018883287906646697,-0.12218070030212401,0.2217023064524155
5.983426089,0.15705979118744529,0.014934152364730816,-0.11860473950703936,0.21511966718298983
6.000183149000001,0.15323339899380997,0.008789226412773117,-0.1341298421223958,0.22489807095400213
6.016940261,0.15161626537640885,0.0034646441539128593,-0.14483197530110675,0.2316781980169891
6.033697116000001,0.15725462883710858,-8.33322604497268e-05,-0.14721202850341794,0.23665163268947864
6.050440922,0.1568125560879707,0.0007863740126291922,-0.130883773167928,0.22342055819383164
6.06721085,0.14973644912242887,0.005461961030960084,-0.11852105458577471,0.21221429920527313
6.083968277,0.1540293842554092,0.014442652463912959,-0.12084476153055823,0.21656451417606112
6.100724899,0.16500570625066754,0.02483270565668741,-0.12307461102803545,0.2257005535567986
6.117481869000001,0.18479414284229276,0.03153571486473082,-0.13718803723653153,0.24941718589557882
6.134238786,0.20376707861820853,0.02860603233178455,-0.14814480145772294,0.27032905707363336
6.150995988,0.19821476191282272,0.016342217723528535,-0.1361265182495117,0.2592855344831492
6.167752469000001,0.17817399650812146,0.007940356930096945,-0.13183736801147458,0.24058567744606354
6.184509886000001,0.16410740216573075,0.008037825425465904,-0.1307264963785807,0.22966500554611405
6.201266965,0.1581684152285258,0.014548867940902712,-0.11443352699279781,0.21173821688858566
6.2180239550000005,0.16162745654582977,0.021253734827041612,-0.1012016932169596,0.20579329114862036
6.234779285,0.16728924463192618,0.023344114422798143,-0.09463667869567867,0.20870903104703042
6.251537851,0.17049494634071982,0.01855512956778208,-0.09724132219950354,0.2123600553066283
6.2682947790000005,0.17482542494932807,0.011127059658368433,-0.10708411534627273,0.21978219244762467
6.28505191,0.17349828779697415,0.0046999951203664245,-0.11587079366048174,0.21950567470634133
6.301808177000001,0.16483764102061585,0.0008827199538548829,-0.11522078514099117,0.21186680817595918
6.318565653,0.14102331797281897,-0.0012762397527694674,-0.09709763526916498,0.1835347699750779
6.335322724,0.11240685234467185,0.0024564216534296766,-0.08935387929280593,0.16000204569929893
6.352079957000001,0.10702747603257494,0.0135689377784729,-0.09181618690490717,0.15786813997790275
6.368836152,0.11209140966335929,0.02273063361644744,-0.07657988866170244,0.1643949883006465
6.385593305,0.11874229709307349,0.028219203154246003,-0.07157238324483232,0.16621266364967188
6.402345737,0.13276201238234833,0.030117228627204878,-0.08445676167805986,0.1852062999240882
6.419104709,0.1457945605119069,0.026607116063435868,-0.0954478581746419,0.20132717181450677
6.435867303,0.16135579099257782,0.02296517789363861,-0.10324732462565102,0.21814705036820323
6.45262124,0.16801882038513816,0.021160309513409938,-0.10834232966105141,0.22663164693456728
6.4693785440000005,0.16587254901727036,0.019253104925155636,-0.11271739006042479,0.2286150445935955
6.486134964000001,0.15469999859730402,0.016761819521586088,-0.11674586931864418,0.22599286556414633
6.502893001,0.1440835272272428,0.0125977098941803,-0.11949920654296875,0.22586195915574533
6.5196491960000005,0.14388303955396017,0.007148966193199168,-0.12221876780192055,0.22796453098629055
6.536406032,0.15022974212964377,-0.00010899702707925132,-0.1188848813374837,0.22672315785695463
6.553163632,0.1533140589793523,-0.005861659844716376,-0.12032421429951984,0.22750430178048683
6.56992004,0.16061159471670786,-0.003009314338366173,-0.14372539520263672,0.23596401673119408
6.586677234000001,0.1752463380495707,0.006208737691243502,-0.15605298678080237,0.2561775043183817
6.603434121,0.1781689003109932,0.014821549256642669,-0.14969865481058753,0.256418388807317
6.6201912720000005,0.16834483544031775,0.020745317141215008,-0.14735277493794754,0.24773121158151748
6.636947854000001,0.14591695864995316,0.021019349495569873,-0.15148369471232093,0.231277881077774
6.653705209000001,0.13002624114354447,0.015997141599655155,-0.14481417338053382,0.21773492853730256
6.670462198,0.1166780243317286,0.009811980028947205,-0.12493205070495601,0.20324280031942524
6.687219086000001,0.11037047207355495,0.00644500801960628,-0.12009827295939124,0.20161914950091542
6.70397582,0.11410097032785411,0.0096880371371905,-0.12202652295430498,0.20322743697441994
6.720733053,0.11892846475044883,0.01574343691269556,-0.11954704920450843,0.20359983555647568
6.737490042,0.1259492958585421,0.023611592749754568,-0.12656823794047034,0.2144241955129708
6.75424757,0.1350634545087814,0.02822551379601158,-0.1332594553629557,0.2263767670735306
6.771003511000001,0.1368157217899958,0.02285280575354892,-0.12681365013122556,0.2234471072111036
6.787760897,0.131274734934171,0.014184219141801175,-0.1286977132161458,0.21795382627656754
6.8045149060000005,0.1312523285547892,0.006645552814006784,-0.1301786104838053,0.21688607014913638
6.821278435000001,0.1316642860571543,0.005113996565341925,-0.12329721450805663,0.21355371853564376
6.8380312850000005,0.1394253050287564,0.01242720335721966,-0.12554486592610675,0.22094464038753622
6.854788639000001,0.1499783371885617,0.024716543654600732,-0.12457346916198726,0.22610675726056625
6.871545791000001,0.1621000046531359,0.03192513684431707,-0.12792722384134925,0.22993869353271754
6.888303126,0.1757068832715352,0.033537447452545104,-0.13169296582539872,0.2340261104516684
6.905059575,0.18212033559878663,0.027860542138417516,-0.126713752746582,0.23302306496035652
6.921816504000001,0.18361412733793256,0.01963863770167029,-0.12416728337605791,0.23246075501186877
6.938573532,0.17744161685307816,0.013669773936271633,-0.13049443562825516,0.2327314144016617
6.955330909000001,0.16959947347640988,0.011679058273633289,-0.1312747001647949,0.2267221363014622
6.972085517,0.15883629024028775,0.012495487928390475,-0.12772997220357254,0.21588678413164386
6.9888465140000005,0.14650572339693704,0.012523020307222972,-0.11985023816426593,0.20178345562748543
7.005601367000001,0.12602022786935166,0.012996713320414197,-0.10757168134053546,0.17949198001846967
7.022358742000001,0.11311201254526772,0.011108850439389523,-0.10639635721842444,0.16777618982073483
7.039102069,0.10993209481239315,0.012914483745892826,-0.09756398200988765,0.1610496010808605
7.055868865000001,0.1097271641095479,0.01943813761075336,-0.08708071708679194,0.16080508252231823
7.072632954,0.11611077189445491,0.033849755922953265,-0.0933155218760172,0.17229291313595382
7.089386657,0.12893171608448026,0.04721841712792712,-0.09829457600911455,0.18556495195767805
7.1061432390000006,0.1406036367019017,0.05385537445545192,-0.104055643081665,0.19699648131563685
7.12290035,0.15146081646283463,0.05207439263661698,-0.1086173852284749,0.20863269243278595
7.139640808,0.15582677225271857,0.039497993886470746,-0.09723528226216631,0.20731395797919402
7.156417686,0.15502557655175522,0.022701576352119415,-0.09583497047424312,0.2092111800904094
7.173171032000001,0.16091772913932798,0.013058324654897027,-0.10237868626912432,0.21808538317935258
7.18992795,0.17136693497498826,0.009121676286061597,-0.09500312805175777,0.22439843081451483
7.206685306,0.18538206815719602,0.010013625025749187,-0.09199571609497069,0.23600398588407465
7.223442314,0.19169957935810086,0.01493312418460844,-0.09020177523295082,0.2421481035365947
7.240198906,0.18766662478446958,0.015158663193384778,-0.08690849939982093,0.23796910557992149
7.256956354,0.17890344063440958,0.012027005354563374,-0.09409769376118972,0.23126357915993986
7.273713159,0.17044362922509507,0.007228066523869803,-0.0901230176289876,0.22081037284808014
7.290470392,0.15343380471070603,0.004676029086112948,-0.07549635569254552,0.2003059020830842
7.30722668,0.13652110596497852,0.006759434938430765,-0.06844886144002273,0.18462007039514652
7.323983842,0.12478668987751006,0.012621189157168056,-0.05934445063273106,0.16956043402077137
7.340740993,0.1166858871777852,0.021058273812135053,-0.044206142425537054,0.16084938765678686
7.357498186,0.11155027151107787,0.033179894089698785,-0.041386286417643185,0.1513179872301098
7.374254819,0.11300412813822425,0.04343249400456744,-0.04215304056803381,0.15228032607107533
7.391011655,0.11215695242087041,0.04720445473988849,-0.04408685366312659,0.15174982929043992
7.407780943,0.11134973665078478,0.04426475862661996,-0.049239794413248654,0.15122361380656046
7.424526101,0.11038471758365627,0.034801100691159555,-0.04723445574442541,0.14786762084303093
7.44128258,0.10618046919504796,0.021677643060684204,-0.045623779296874944,0.14279123278599848
7.458039865,0.10638471444447832,0.011208559075991317,-0.04233860969543452,0.1386600371709146
7.4747966,0.10448682804902391,0.004935160279273991,-0.025877873102823853,0.13950479118142203
7.491554036,0.10590921839078264,0.005049794912338266,-0.023325204849243136,0.14060564533232559
7.508310486,0.11627031366030371,0.012451236446698516,-0.02949301401774086,0.1535534344240504
7.525067821,0.12764169275760648,0.023840730388959255,-0.040513435999552386,0.1711630840226608
7.541824555,0.14886354406674698,0.03241247435410816,-0.0543107986450195,0.18786736308329322
7.558581625,0.1577753573656082,0.028930937250455216,-0.04540348052978513,0.1927406670743782
7.575338411,0.14794439574082688,0.016721357901891075,-0.038167158762613916,0.18400364663805646
7.592095613,0.1360353976488113,0.009212131301562008,-0.03495621681213378,0.17424189615925767
7.60885245,0.12266185879707332,0.008322248856226613,-0.021818796793619782,0.1668786603109413
7.625609612,0.11905857920646666,0.01830007135868073,-0.013022263844807945,0.16881071924056637
7.642373884,0.12149558464686072,0.03236853082974751,-0.0037953853607177804,0.17468468210537777
7.659123539,0.12232771515846251,0.04008379081885018,-0.007287025451660166,0.17814861527273554
7.675880538,0.13005605836709336,0.04072363177935281,-0.03033336003621419,0.18329692860335964
7.692635014,0.13485887149969736,0.02904079357782999,-0.02152283986409505,0.1907254435781529
7.709393661000002,0.11937297880649562,0.010536213715871176,-0.0008589426676432315,0.1779237382539268
7.726151403,0.09728795289993282,-0.0023368696371714273,0.014588594436645492,0.1571805971691237
7.742908025,0.06899915635585782,-0.0024858713150024314,0.03631250063578286,0.14749275384102992
7.759665798,0.057761038343111644,0.012618174155553183,0.043384313583373996,0.14567125321153615
7.776421892,0.06526184082031249,0.03417363762855529,0.043058713277180964,0.1542327500345507
7.793179125000002,0.08352492252985634,0.046257843573888124,0.034464677174886056,0.17234973835044146
7.809936276,0.10552603999773659,0.046537046631177255,0.028716802597045885,0.18763671307071195
7.826690367,0.10892946024735767,0.03487020234266915,0.036055962244669566,0.19307363858196006
7.843452859,0.10550949474175769,0.021890113751093537,0.03975327809651691,0.19175128374172448
7.860206887,0.1019492596387863,0.015126238266626993,0.05925981203715005,0.19268504036958758
7.876964172,0.09292076031366985,0.014350434144337974,0.07401267687479653,0.18102741387103075
7.89372115,0.1025039901336034,0.025974323352177923,0.05380646387736001,0.18845965613089932
7.910477925,0.12468913694222766,0.035918205976486185,0.05841501553853351,0.20136369613459917
7.927234884,0.13117744028568265,0.03371778130531309,0.05623078346252439,0.20188691411262738
7.944003429,0.1400334984064102,0.026371250549952176,0.027297337849934877,0.19930210612308422
7.960749228,0.13612572848796842,0.01251699527104695,0.04083339373270669,0.20586346752258758
7.977505811,0.11902120212713874,0.0008435547351837089,0.06461795171101885,0.2070112598564102
7.994262656,0.10657088458538051,0.0028929362694422333,0.08124073346455887,0.19832440774063073
8.011019747,0.09682611127694447,0.011756782730420426,0.09675868352254229,0.19925461138675163
8.027777113,0.10210570196310677,0.027628973126411428,0.07927187283833818,0.20107902103644515
8.044533359,0.11883081992467243,0.04242456952730813,0.05387210845947263,0.2164570429550825
8.061290978,0.1298194626967112,0.04279318451881406,0.04998564720153806,0.2212347982913292
8.078047632,0.12336949010690053,0.030796612302462247,0.055536667505900035,0.2269836866026014
8.094804763,0.09538512428601581,0.015207742651303596,0.07524474461873369,0.21918501181386693
8.111561437,0.06615944455067314,0.005272760987281799,0.09765585263570147,0.23133470947644527
8.128318752,0.05707956105470657,0.00699576238791148,0.12217775980631507,0.2522826409208359
8.145075455,0.05436134090026218,0.018597925702730802,0.13733005523681638,0.24781491799939145
8.161832749,0.07039690762758252,0.03532056013743081,0.11598412195841468,0.248947921656282
8.178576147000001,0.0959724262356758,0.04372708499431608,0.10824990272521968,0.255353872546252
8.19534634,0.09794296075900392,0.0387457360823949,0.10919992129007972,0.2551798033509474
8.212103706,0.09464840839306511,0.03040307263533272,0.09641885757446288,0.2423566879977366
8.228860542000001,0.08387031406164168,0.015852515896161382,0.11618026097615557,0.24004038218070245
8.245616982000001,0.06437196085850394,0.004804288347562148,0.14429489771525061,0.22590138873733853
8.26237451,0.058467052876949276,0.009701679150263454,0.14469051361083982,0.22170700921410377
8.279131529,0.06643880655368166,0.021502966682116178,0.15556192398071286,0.22963143611148673
8.295888620000001,0.07678588479757305,0.03243992726008095,0.15216183662414548,0.22104619277936735
8.312644999,0.0956489890813827,0.04365109900633491,0.11972872416178383,0.1964803011060902
8.329402283,0.11181597908337908,0.04586422443389889,0.10834121704101561,0.1878720689016791
8.346159037999998,0.11547312637170153,0.035633221268653856,0.11795886357625324,0.19189824098053934
8.362916627,0.10429299871126807,0.021703590949376395,0.13340743382771808,0.1856633126588568
8.379673270000001,0.08381837109724675,0.01055498917897541,0.1436522801717122,0.1813400658677475
8.396429984000001,0.07357943058013912,0.008603259921073901,0.14394760131835935,0.17589731420071872
8.413187238,0.06681549052397405,0.013942028085390709,0.1518916289011637,0.17928734361119195
8.429944399,0.06576028466224668,0.021726643045743285,0.14677190780639646,0.1750396470551763
8.446700748000001,0.07241225242614743,0.026696369051933257,0.13962721824645993,0.17275482172618217
8.463458266,0.06426127751668291,0.026577378312746657,0.14994446436564124,0.17837000670612294
8.480215163,0.05737878878911334,0.028800542155901568,0.1402943929036458,0.167594935693094
8.496972193000001,0.06279714902242022,0.03126544257005053,0.14349357287089026,0.1736781409275159
8.513728816,0.0569220036268234,0.029299934705098455,0.16420578956604,0.1848441338009806
8.530488387,0.05719393491744992,0.03026065727074938,0.16389584541320798,0.18480013637560921
8.547240505000001,0.059719949960708583,0.03143576284249621,0.16639455159505204,0.18821389558688498
8.564000056000001,0.0643194367488225,0.031755944093068415,0.16136463483174637,0.18644089145837464
8.580756690000001,0.07767765223979946,0.03504778444766995,0.14433018366495765,0.1796108470068761
8.59751374,0.08256093660990392,0.03390802443027493,0.14673654238382972,0.18326709125668939
8.614270983,0.0792583972215652,0.027419805526733374,0.14152018229166663,0.17606206303261615
8.631027992,0.06877892464399336,0.018511643012364694,0.13905294736226395,0.17488464679650884
8.647784382000001,0.046187475323677035,0.007673978805541985,0.14928960800170896,0.18643934745293542
8.664541787000001,0.03022071719169615,-0.0027944793303807587,0.14836128552754715,0.19079749525254205
8.681298827,0.015470581750074998,-0.009466742475827534,0.1526275475819905,0.19945619929510205
8.698055785000001,0.002618901431560506,-0.009330938259760531,0.1504879792531331,0.19580711779721408
8.714812377000001,0.0027209644516308935,-0.000806922713915507,0.13648509979248044,0.1872018527246391
8.731569489,-0.0006987477342287907,0.0073967228333155334,0.1308009624481201,0.1840844485936969
8.748326641,-0.005761203666528071,0.01308609048525492,0.11991675694783525,0.17482229770978852
8.765083995000001,-0.016495175659656535,0.01149525245030721,0.11139154434204096,0.16259574985482583
8.781840445,-0.03440281003713607,0.0031173427899678593,0.10963439941406246,0.15495074866910993
8.798597373,-0.04667172084252038,-0.004898513356844574,0.10874485969543451,0.15570426508186616
8.815354515000001,-0.05518244951963421,-0.008912344773610416,0.12102588017781572,0.1698928188983073
8.832111961,-0.05849977085987725,-0.0045006771882374974,0.12900511423746738,0.17784403554267803
8.848868105000001,-0.048856377601623514,0.007625902692476906,0.11121845245361324,0.16258317493938465
8.865612318,-0.02531674007574715,0.02169360717137653,0.08792241414388018,0.1517236948124526
8.88238241,0.003069517513116219,0.026334702968597395,0.07660643259684241,0.14788452576501893
8.899139683000001,0.02162459741036098,0.01758399605751036,0.07290697097778316,0.1536227312394226
8.915896215,0.026805860300858835,0.0006199429432551008,0.0722405910491943,0.1538784865590195
8.932653193,0.0223921909928322,-0.013346632321675619,0.08029834429423012,0.1565193783793871
8.949404932,0.01792878657579423,-0.017518530289332073,0.09151037534077959,0.16323672606357342
8.966173132,0.02149057139952977,-0.007615019877751685,0.09998933474222815,0.17510319553925954
8.982924119,0.03448032587766648,0.008989423513412451,0.09939201672871906,0.18166951215671942
8.999681107,0.05542197078466413,0.021950672070185306,0.09522763888041175,0.18471589142945966
9.016437925,0.07080860684315361,0.02347422639528907,0.08671760559082027,0.17658367631202018
9.033195534,0.08146746953328446,0.014461850126584344,0.0749556223551432,0.16634665872639942
9.049951921000002,0.08161574602127074,-1.7205874125181264e-05,0.08774002393086748,0.17394127440605509
9.066709187,0.06131980071465171,-0.011771659056345628,0.11074709892272948,0.18222299314523124
9.083466235,0.04066005100806553,-0.009098351001739509,0.11856532096862789,0.1792646850895819
9.100223163,0.027121298015117628,0.004189893603324883,0.1403578122456868,0.19086720033351098
9.116979777,0.01779580364624658,0.018489966789881376,0.15191594759623206,0.19714035582477998
9.13373706,0.02266715715328851,0.031095514694849623,0.13126397132873532,0.19225455288571358
9.150494089,0.031016893684864034,0.033486366271972635,0.12021088600158687,0.18746862300674264
9.167251049,0.028340431551138554,0.021347562472025544,0.12063113848368325,0.18446891650975913
9.184007468,0.008425717552502942,0.0046032915512720755,0.11734541257222492,0.1821825517482142
9.200764965,-0.018768519163131717,-0.009788999954859401,0.11198425292968749,0.17937742697738998
9.217521985,-0.03796205917994181,-0.015436177452405275,0.11173518498738605,0.18376752278188846
9.234279188,-0.04958917448918023,-0.010530134042104065,0.11116512616475421,0.18671386586533345
9.251035413,-0.049665299554665865,-0.0007745822270711152,0.09724315007527666,0.17687100307028078
9.26779281,-0.04003241658210754,0.004699011643727627,0.08065048853556313,0.1575053818498049
9.284549869,-0.03153976301352184,0.0007163981596628841,0.061752796173095696,0.15301956029506292
9.301303836,-0.01965772112210593,-0.004392589131991072,0.02882830301920573,0.14084107807247412
9.318066512,-0.007691433032353728,-0.007476672530174265,0.019390503565470365,0.13660491146722967
9.334820531,-0.006387899319330859,-0.010138586163520822,0.019873539606730134,0.13585073579679804
9.351577682,0.0028175512949625606,-0.007292886575063082,0.011265118916829422,0.14533407899230252
9.368334896,0.019494980573654164,-0.002394045392672242,0.011958837509155275,0.1547954572675382
9.385091549,0.0445632015665372,0.0045439302921294845,0.004385073979695643,0.15933031334682113
9.401848435,0.07762422412633894,0.01581258078416184,-0.006734132766723622,0.16739665305547194
9.418605323,0.10488439848025638,0.021859690546989385,-0.004673560460408524,0.16956112483359553
9.435362974,0.12268394728501636,0.020280276735623624,-0.005951245625813797,0.16568264154885257
9.452119311,0.1283883800109227,0.013533065716425534,0.0029617150624593005,0.1690781110242597
9.468876514,0.12308875719706214,0.002155236899852716,0.02727373441060384,0.1954697456250747
9.485633279,0.10462645192941027,-0.007736278076966634,0.06099534034729002,0.21857522676452476
9.502386504,0.0709037880102793,-0.01563331733147305,0.07832161585489907,0.2279160874778329
9.519147104,0.04271283000707623,-0.01853422572215399,0.07523957888285317,0.2299663649697348
9.535904419,0.016148904959360732,-0.016883276402950294,0.08681273460388182,0.2388920865512276
9.552661276,-0.018495651582876842,-0.012781284749507911,0.08674407005310054,0.23999604026274438
9.569418314,-0.04714171836773554,-0.006076820194721222,0.08107813199361164,0.2355295144814414
9.586174847,-0.0820364455382029,-0.007385355730851477,0.11323293050130206,0.2503948521422285
9.602932222,-0.12542466570933658,-0.011022470891475669,0.13870120048522946,0.2551647963692806
9.619686027,-0.1522288620471954,-0.0036703522006670598,0.13002729415893552,0.24812628164727799
9.636449588,-0.15165897707144418,0.009284051756064103,0.1327990690867106,0.2517663457988615
9.653202782,-0.13416341443856553,0.023340232670307156,0.134613037109375,0.26501198648285357
9.669960106,-0.10483759144941962,0.038093373179435716,0.10470088322957355,0.2603744149755925
9.686717197,-0.06573495765527086,0.04456045726935067,0.06850846608479814,0.2550712085754313
9.70347441,-0.029673541585604313,0.03814764072497684,0.05776437123616537,0.24939363618083685
9.720231114,-0.005528328319390589,0.02327687541643776,0.05700103441874185,0.24837282459985074
9.736987910000002,0.018725916743278503,0.004177796343962352,0.061425209045410135,0.24641382571229156
9.75374499,0.03888098150491714,-0.01385089010000228,0.07943153381347652,0.24100130430034092
9.770502314,0.06272269040346144,-0.022806776066621126,0.08309364318847655,0.24029250483219777
9.787258805,0.09839247663815814,-0.018990176419417044,0.06734283765157062,0.22662193047205845
9.804015733,0.1360530431071917,-0.014400817453861224,0.04195276896158853,0.21693777253873425
9.82077263,0.1617044905821482,-0.01519370327393213,0.01675287882486979,0.22864210252328232
9.837516955000002,0.1575249334176381,-0.021461921433607728,0.009950160980224613,0.21968422412300978
9.854286446,0.12610855946938193,-0.0314428036411603,3.099441528326962e-06,0.21078969372025105
9.871043872,0.08634426941474276,-0.03769970188538231,0.0006710688273112031,0.2043943245820488
9.887800892,0.039420271913210514,-0.0377028758327166,0.021973371505737305,0.20381904350506808
9.904558165,0.001813443998495724,-0.027631973226865114,0.025525569915771474,0.20857145691786802
9.9213143,-0.020465888082981123,-0.010408701996008539,0.016816695531209312,0.20774818705979115
9.938057871,-0.03482249627510708,0.006059721112251284,0.0022988319396972756,0.198596683879379
9.954829355,-0.038749478757381446,0.01823964715003966,-0.014599959055582664,0.18964749693490887
9.971585928,-0.05317991226911544,0.022893051306406637,-0.021567503611246732,0.18007422998575207
9.988342500000002,-0.06750636547803877,0.02092625697453814,-0.03296621640523272,0.16555785179272794
10.005099397,-0.07596097141504286,0.016858682036399824,-0.031565745671590144,0.1576920755167884
10.0218566,-0.08020202567179997,0.01110670963923135,-0.01638158162434893,0.14375451308042697
10.038613924,-0.06605091442664464,0.009486690163612352,-0.02287236849466957,0.1587200195065226
10.055371718,-0.03084604442119598,0.009914025664329508,-0.026665767033894824,0.16859722531987706
10.072126030000002,0.005778223276138294,0.00985331336657204,-0.03354104359944659,0.17374880351167288
10.088871229,0.05417385945717493,0.011930922667185451,-0.06228645642598466,0.17906543343881176
10.105641686,0.10869522889455158,0.009078174829483018,-0.07314610481262203,0.18875237688832525
10.122398197,0.15124563376108802,0.0002728650967280001,-0.06896599133809404,0.20181248599313575
10.139160517,0.17959167063236234,-0.007227351268132524,-0.06729435920715328,0.2137175317417246
10.155912176,0.1941012193759282,-0.015002315243085207,-0.06294608116149901,0.22150445708645952
10.172669357,0.20552462339401242,-0.020501355330149306,-0.06383458773295082,0.2253351938961113
10.189426061,0.21112951636314384,-0.0190291901429494,-0.06287837028503417,0.22946444473981417
10.206183284000002,0.21309821307659146,-0.013610939184824616,-0.052414496739705385,0.22969619355559967
10.222940182,0.20887128512064612,-0.0068978567918141645,-0.03890109062194824,0.22992252047267328
10.239697405,0.1941608736912409,0.0011100620031356857,-0.03152664502461752,0.22005030531153502
10.256453784,0.17327436308066044,0.010183811187744139,-0.0238918463389079,0.20542632951332196
10.273210946,0.15498650074005124,0.014549975593884781,-0.006276528040568055,0.19059556785027562
10.289968178,0.1290888339281082,0.015362491210301718,0.008547226587931294,0.16252004543503443
10.306713012,0.09850008785724636,0.020150745908419285,0.011349439620971657,0.13515999493019618
10.323481505,0.07050486405690506,0.02413550019264221,0.009799242019653301,0.10833743323074722
10.340239003,0.05132631957530972,0.026024068395296737,-0.001722176869710298,0.09996805137316184
10.356996074,0.04299333194891607,0.029493520657221467,-0.011976480484008794,0.09704377449254331
10.373753103,0.03418571750322973,0.02671186129252116,-0.014199177424112952,0.09224773022703353
10.390509796,0.031642923752466794,0.018064593275388088,-0.025872230529785156,0.10022808291232792
10.407268251,0.03378287454446152,0.008022919297218333,-0.0358289877573649,0.10368299222895921
10.42402347,0.040682082374890606,0.0012721717357635674,-0.04132199287414549,0.10518068055091662
10.440781435,0.053133269151051814,-0.001973186930020634,-0.059074481328328425,0.12001084791773671
10.457537448,0.07727230091889696,-0.0007310559352238811,-0.09591770172119136,0.155614991923639
10.47429465,0.10540997485319771,0.003465900818506894,-0.11646437644958492,0.18116492693621314
10.491051853,0.12597711384296414,0.001907686392466243,-0.12104249000549315,0.19975930258400343
10.507809126,0.13786501189072922,-0.004365285237630182,-0.126879612604777,0.21212744038813577
10.52456525,0.13851930201053617,-0.010267809033393839,-0.12882169087727863,0.21816354589933426
10.541322524,0.1361910651127497,-0.01327068607012429,-0.1263942718505859,0.2164664257197736
10.558079829,0.13973899185657498,-0.01411066949367521,-0.12748495737711588,0.21937361682544235
10.574836756,0.1525330543518066,-0.011540467540423045,-0.12737154960632324,0.22816404373582863
10.591593471,0.1582241356372833,-0.008162548144658383,-0.122104008992513,0.22589195325777953
10.608350521,0.15270514289538065,-0.0049870411554972065,-0.13577024141947427,0.23357076165417992
10.625107337,0.14492230117321012,-0.005129779378573074,-0.1523603598276774,0.23519477801517627
10.641864834,0.12657600641250608,-0.00982347130775449,-0.144366184870402,0.22189833768515188
10.658621314,0.09465984006722766,-0.01683798929055529,-0.12168709437052405,0.19159590774716873
10.675378426,0.057734663287798554,-0.020080536603927595,-0.11695742607116695,0.17024461008406708
10.692135262,0.032871176799138396,-0.014990806579589837,-0.12138589223225908,0.16190348233066243
10.708892515,0.020949279268582668,-0.00508510569731394,-0.12043865521748857,0.15527470356130713
10.725648925000002,0.0246390054623286,0.004617879788080851,-0.124517281850179,0.15652144378831484
10.74239625,0.031177942951520283,0.00889442861080169,-0.12975478172302243,0.16192596956669983
10.759163441,0.02800128857294718,0.00698418915271758,-0.12629397710164383,0.1574577887517418
10.7759204,0.016946241259574883,0.0033458620309829647,-0.12086637814839678,0.1512850407989068
10.792670441,0.009607478976249684,0.0005990117788314703,-0.1242266496022542,0.15122971206687455
10.809434418,0.014142036437988276,-0.0003411471843719627,-0.11948935190836585,0.14871981685891275
10.826191174,0.0165653129418691,-0.002538487315177929,-0.10955206553141272,0.14304700675416127
10.842948925,0.023699964086214696,-0.008481989304224651,-0.10149820645650225,0.13975308274623027
10.859704368,0.02263808250427245,-0.016395941376686093,-0.09467943509419757,0.13679233528558965
10.876462059,0.019300649563471464,-0.023674160242080678,-0.09788258870442705,0.141377984836791
10.89321914,0.01783154408137003,-0.027548000216484052,-0.09597531954447425,0.13997173088159928
10.909978061,0.01548287272453308,-0.030003443360328657,-0.08659513791402178,0.13143510982491843
10.926731043,0.006495773792266835,-0.026237105329831426,-0.06885933876037595,0.1355294825128696
10.943490086,-0.011442964275678003,-0.017801856001218152,-0.04556973775227863,0.13596272901656323
10.960247024,-0.02464533845583598,-0.004467313488324474,-0.03899065653483071,0.13981283257653587
10.9770044,-0.02412445346514383,0.010865400234858191,-0.037111679712931285,0.14506175136544408
10.993760788,-0.01957214872042338,0.022082244356473286,-0.008398850758870424,0.15120684058339037
11.010495957,-0.0200711190700531,0.026654998461405427,0.021518786748250335,0.1489059941994282
11.027274715,-0.016828914483388264,0.028584703803062425,0.043908913930257164,0.16136525431752344
11.044032182,-0.014697243769963583,0.03011396527290343,0.06948749224344888,0.17973080677477316
11.060788846,-0.0010040551424026604,0.033648083607355744,0.08596762021382649,0.18226071007148106
11.077545683,0.016038353244463583,0.037750631570816026,0.1004778544108073,0.17274229190194437
11.094302367,0.02741373578707375,0.03678945203622181,0.11299014091491698,0.16694076779666747
11.111060576,0.029786864916483535,0.02939300239086151,0.11908698081970213,0.171817287368636
11.12781669,0.03065232435862221,0.014672184983889267,0.11750642458597817,0.1713577198263959
11.14457376,0.03616295754909515,-0.0007770657539367537,0.12191708882649738,0.17026483181661042
11.161330586,0.03538822134335835,-0.01456248263518014,0.13828778266906736,0.17454952270101684
11.178087993,0.029592091838518773,-0.019538044929504384,0.1382633845011393,0.17113456970369847
11.194844473,0.030154933532079053,-0.01474373042583465,0.12625749905904132,0.16586984386666048
11.211601807,0.029088973999023438,-0.004217699170112603,0.11783369382222492,0.16493863183047236
11.228358329,0.027274365226427708,0.010547026991844184,0.09463206926981606,0.15989455635137292
11.245107922,0.02512943744659424,0.020835702617963154,0.0677681763966878,0.1423336363997203
11.261872276,0.007880496482054392,0.019774024685223896,0.055151383082071924,0.14064535956206595
11.278629559,-0.015583289166291552,0.011669322848320009,0.04805978139241537,0.15305156218005656
11.295386641,-0.03802597274382908,0.003920075794061033,0.0481886863708496,0.16694765158574443
11.312143598,-0.05022711555163065,0.001552609105904904,0.05244255065917968,0.17600996714026704
11.328900221,-0.052846014499664286,0.007561710973580688,0.051680723826090486,0.17386879769133787
11.345656844,-0.043082272013028465,0.018987389902273822,0.02035387357076009,0.17785169857832503
11.362415064,-0.012125949064890557,0.030419625341892246,-0.026411771774291992,0.19974931858271613
11.379171493,0.018062944213549276,0.031942916413148253,-0.05046081542968749,0.2239877831814707
11.395927882,0.03673263390858966,0.021763729552427936,-0.06462868054707843,0.2378366649179221
11.41268537,0.04127391676108041,0.003448652724425015,-0.06097292900085447,0.23876286911908173
11.429442328,0.025116443634033193,-0.016801901161670657,-0.046677271525065095,0.23654910483323366
11.446199572,0.018506591518719973,-0.02056115120649335,-0.04630366961161294,0.23346390337976564
11.462955818,0.037788840631643915,-0.009950396915276822,-0.0321674346923828,0.23895105170871203
11.479712979,0.06588530788818993,0.003996434311072044,-0.019047896067301444,0.23488422139938195
11.496470182,0.09383698056141536,0.016914695501327518,-0.03058966000874837,0.22931356478894974
11.513227517,0.10652810831864673,0.02251328031222025,-0.042755524317423486,0.2163363301636609
11.529983977,0.10731828212738036,0.018661494056383763,-0.05475521087646482,0.21496951902683523
11.546740834,0.09438735743363696,0.0069689104954401655,-0.04024251302083331,0.20825833976871114
11.563497894,0.05517833679914475,-0.010405898094177244,-0.006423473358154286,0.18721029054524316
11.58025532,0.014708034694194787,-0.02376316487789154,0.015450398127237966,0.16995088611795325
11.59701175,-0.021834539870421082,-0.02419452865918477,0.03060714403788248,0.15390473488647896
11.613768871,-0.03817763179540632,-0.010460828741391504,0.019625981648763027,0.1459095110203623
11.630525819,-0.024490880469481138,0.009070575237274154,0.0037114620208740304,0.14693065015782797
11.647283205,-0.014728349943955735,0.017497465014457685,-0.004181782404581697,0.15873084655537953
11.664039878,-0.012250753740469605,0.020560766259829184,-0.0345023473103841,0.16465075899529436
11.68079699,-0.01236657053232193,0.01844062904516854,-0.050945281982421854,0.16338985203377573
11.697553562,-0.016916168232758835,0.011171802878379817,-0.05108157793680825,0.1606020902259543
11.714298089,-0.013883041838804885,0.006356557210286458,-0.06740244229634601,0.17760970559422673
11.731067152,-0.004007982710997275,0.005366702874501552,-0.08599011103312172,0.1925049615049602
11.747824814,0.013395073513189928,0.006152773896853131,-0.09690523147583006,0.19783353110983617
11.764581731000002,0.03935843209425607,0.00842870275179546,-0.10688447952270506,0.19278551665687158
11.78133873,0.06487741072972612,0.009227817257245393,-0.11489558219909664,0.19088519107247362
11.798095516,0.08601708213488257,0.008953675627708463,-0.12415655453999834,0.19045280351095817
11.814852769000002,0.10393542051315302,0.008255412181218494,-0.13348499933878577,0.20129906217295157
11.831606554,0.12001262108484899,0.007937063773473132,-0.13770739237467444,0.21353727098170197
11.848369849,0.12953953444957728,0.007292792201042203,-0.1351656913757324,0.21785167440655348
11.865123186,0.12732728819052375,0.0003222227096557854,-0.1322667598724365,0.2120897158880134
11.881880602,0.11777709921201067,-0.007533927758534713,-0.13506571451822913,0.20949896376887223
11.898637662,0.10712267955144243,-0.011072282989819817,-0.13073229789733884,0.2077749843236492
11.915394998,0.09864375988642371,-0.009216030438741023,-0.11408567428588862,0.19392910445746459
11.932150999,0.09035014112790422,-0.002559870481491065,-0.09782242774963375,0.17733878625836821
11.948908222,0.08731827636559801,0.007026905814806636,-0.09032996495564773,0.16862242161260907
11.965665476000002,0.0816668371359507,0.0168706476688385,-0.08682028452555333,0.16166242983362308
11.982434896,0.07378103832403816,0.026976222793261204,-0.09448830286661779,0.16102541039191323
11.999179159,0.069232240319252,0.02935690184434252,-0.09622295697530107,0.1580293237514568
12.015936188,0.052630682786305734,0.020662585894266745,-0.08484339714050289,0.14111182688290366
12.032693188,0.030575523773829143,0.009753465652465801,-0.08944352467854814,0.1287856972019577
12.049450583,0.017648324370384216,0.0017984708150227695,-0.09363007545471187,0.12064222107993307
12.066207196,0.01545815169811249,-0.0029947410027186157,-0.09329366683959957,0.11905732363653881
12.082964409,0.026370311776796985,-0.001936490337053949,-0.10119446118672686,0.13006153338238954
12.099721052,0.03779683510462443,0.0012267529964446917,-0.10507432619730628,0.13200160910896996
12.116465224,0.04695397615432737,0.004993711908658342,-0.1209936141967773,0.14418232513750287
12.133234948,0.06287050247192381,0.008534426490465786,-0.1345276832580566,0.16011144900751548
12.149992201,0.06771670281887053,0.007879987359046926,-0.12860226631164548,0.16043907059671136
12.166749211,0.07027116417884825,0.0037966767946879085,-0.13706405957539872,0.1677367272325527
12.18350619,0.07650061945120491,-0.0007789433002471837,-0.14110970497131348,0.17339906489873172
12.200258743,0.07976704835891722,-0.004960502187410967,-0.1339445114135742,0.17504990546276078
12.217020086000002,0.0877344359954198,-0.005402406056721975,-0.13516028722127274,0.17855848107376246
12.233773748,0.09346288442611693,-0.007666250069936083,-0.13400332132975257,0.17863022870600578
12.250534044,0.09559905032316841,-0.012337495883305823,-0.1393008232116699,0.1842759890516984
12.267290738000002,0.09302435815334316,-0.016819958885510727,-0.1458929379781087,0.19058460571750616
12.284048073,0.08248107135295864,-0.020988536377747818,-0.14584040641784665,0.18801480411401836
12.300805011,0.0679825941721598,-0.023627047737439445,-0.1439113616943359,0.18844562864094683
12.317562031,0.03952933102846142,-0.024251714348793,-0.13922993342081702,0.19646073068856287
12.334318694,0.007783614099025694,-0.022606010238329536,-0.13500308990478513,0.19873599862400057
12.351075784,-0.014723440011342398,-0.01783897976080573,-0.12551522254943845,0.20556349241100888
12.367832855,-0.031490013003349325,-0.008293559153874691,-0.11676708857218421,0.2058490798848839
12.384590118,-0.04096067448457084,0.006488631169001274,-0.12072738011678057,0.21159036496851702
12.401346242,-0.0507536977529526,0.019688015182813007,-0.1330483754475911,0.2166803289540424
12.418103791,-0.05805638929208121,0.0274338275194168,-0.15052119890848792,0.22996563366363798
12.434860647,-0.06737855573495231,0.03173405428727467,-0.15605068206787107,0.23476082646386787
12.451614666,-0.0811737229426702,0.03316448628902434,-0.14363233248392737,0.22625993011256354
12.468377586,-0.10092965513467789,0.037526234984397895,-0.1332784493764241,0.22345958757991113
12.48513136,-0.12217775732278822,0.044055394828319556,-0.13397256533304847,0.23096185190119567
12.501888705,-0.13040949900945026,0.05017566680908204,-0.1508510112762451,0.24715873502973315
12.518645856,-0.10819232215483982,0.04336856553951899,-0.1522698402404785,0.2374818056709205
12.535402337,-0.08324264734983443,0.024043540159861248,-0.1391051610310872,0.2274872994638498
12.552159448,-0.06316534678141277,0.005985694626967128,-0.15975618362426755,0.22911803259092145
12.568916274,-0.04429460565249125,-0.004670985043048842,-0.17684634526570633,0.23732919703415178
12.585673833,-0.031456778446833304,-0.013255553940931933,-0.17485737800598142,0.23590776958006313
12.602429997000002,-0.005613888303438823,-0.014877709249655384,-0.1828203201293945,0.25363756536794346
12.619187526,0.02509971459706623,-0.01475621511538821,-0.1763375600179036,0.2662625579267919
12.63594418,0.04764330387115478,-0.022524428864320087,-0.16538739204406736,0.2677827496407201
12.652701412,0.06379881997903185,-0.03154123822847999,-0.18633556365966794,0.2867728935672569
12.669458065,0.08563784013191855,-0.04343195507923759,-0.19926889737447098,0.2952197038185252
12.686215665,0.10927344113588332,-0.05626260737578071,-0.18432545661926267,0.2824702266911406
12.702972196,0.1216431160767873,-0.06587103754281995,-0.1691188812255859,0.26776246594845393
12.719729367,0.11813633640607195,-0.0649740969141324,-0.17133625348409012,0.2698383413009617
12.736485736,0.10039391616980231,-0.052437677979469265,-0.170658270517985,0.2670582849199525
12.753243051,0.06960595647493995,-0.03502481927474337,-0.15223264694213864,0.2739362864209361
12.770000253,0.03508169452349345,-0.018686242401599874,-0.14220801989237464,0.2832183719003311
12.786757528,0.0021848951776822292,-0.008577095965544367,-0.12860592206319169,0.28557859724748635
12.803513621,-0.038696015874544784,-0.0059141243497530345,-0.11491235097249346,0.2727237134098928
12.820271088,-0.062010819713274636,-0.0013549154003461006,-0.12143301963806151,0.2627166195975473
12.837024853,-0.056872472167015076,0.009954132139682772,-0.11820419629414874,0.26702114834066404
12.853788393,-0.008385365207989992,0.00898045053084691,-0.09032718340555823,0.29577356718383213
12.870541648,-0.010790348052978517,0.030267884333928418,-0.08539732297261554,0.2885406851562695
12.887298983,-0.02639409899711607,0.04773044337828952,-0.135275920232137,0.32939748892904214
12.904055799,-0.03490037719408671,0.059035360813140834,-0.10988736152648922,0.3366521716568722
12.920813316,-0.03511624534924823,0.06008641173442202,-0.06326119105021155,0.34786867260410403
12.937569583,-0.029399101932843518,0.05612548937400178,-0.06666684150695797,0.3454629381460728
12.954326725,-0.002635017037391645,0.03772744039694465,-0.09499438603719072,0.34622818440493813
12.971083896,0.042600656549135855,0.00739616403977075,-0.08927702903747559,0.3398032324699958
12.987843185,0.08091465383768082,-0.024354522426923125,-0.08068823814392088,0.33930344416776775
13.004595342,0.10073289771874748,-0.04601923873027166,-0.09669852256774902,0.34230378889402285
13.021354691,0.09416925410429637,-0.061053089797496775,-0.09644619623819983,0.3391389628129189
13.038108812,0.05167499432961146,-0.06255748619635898,-0.08748952547709143,0.332596758070966
13.054871599,-0.027658946812152852,-0.039573485652605676,-0.09167639414469399,0.3012642503831512
13.071625556,-0.03917077680428822,-0.033649091919263185,-0.07322780291239418,0.29691773785606934
13.088382800000002,-0.029308825731277438,-0.025574554999669385,-0.011780341466267899,0.2557927188013911
13.105139452,-0.0016651054223378338,-0.02260843416055042,-0.02768421173095702,0.25109166346039596
13.121896736,0.026259616017341614,-0.017244284351666753,-0.06380303700764972,0.2446132550682912
13.138653349,0.024435415863990794,-0.003710960348447149,-0.07507983843485513,0.25421731955904514
13.15541047,-0.0029852961500485505,0.009364701807498928,-0.06472786267598468,0.2557454834311557
13.172167632,-0.04092445969581602,0.012302341560522722,-0.05906128883361816,0.2529812868554354
13.188924631,-0.07165323197841643,0.02314724524815877,-0.06511727968851724,0.24083782434731557
13.205681193,-0.0853662292162577,0.03992718209822973,-0.03950921694437662,0.23058365061174055
13.222438477,-0.09188379098971683,0.04627287139495212,-0.015538454055786147,0.22092031440813256
13.239195466,-0.07709242403507231,0.039436804751555116,-0.03503751754760742,0.21789666523074802
13.255952608,-0.05152117709318795,0.028567858040332777,-0.05033373832702637,0.20933900689479265
13.272708955,-0.037630560497442865,0.012900056938330315,-0.05051088333129882,0.1995306575923641
13.289466453,-0.03294286876916886,-0.004934467375278474,-0.053630590438842766,0.1929015609818803
13.306223158000002,-0.050707352658112846,-0.01225083818038304,-0.060273090998331676,0.18341795707950195
13.322981265,-0.07318504899740219,-0.009795663257439939,-0.05194060007731118,0.16141529876582048
13.339736524,-0.06679400056600569,-0.013221122324466714,-0.03223307927449544,0.14712886641769587
13.356494063,-0.0471655378739039,-0.006897263228893288,-0.026244084040323884,0.1307401773150657
13.373250889,-0.03613354017337162,0.009450281659762041,-0.02648353576660156,0.11674258830745822
13.390008508,-0.03833514203627903,0.010367130239804567,-0.018741369247436523,0.11963395060606508
13.406764074000002,-0.04275857905546823,-0.004481976230939242,-0.020210584004720058,0.12275869229756581
13.423522873,-0.04602035135030746,-0.013094837466875717,-0.021338780721028645,0.12678360294333563
13.440279139,-0.04800698906183241,-0.014671613772710168,-0.002274513244628919,0.11759906604843044
13.45703622,-0.0505975062648455,-0.014785329500834152,0.01471376419067382,0.10116111154560935
13.473776852,-0.05283616234858828,-0.010514304041862493,0.012976169586181625,0.09973551730297599
13.490553127,-0.05426015208164849,-0.0005724132061004812,-0.0006922086079915515,0.10253898166355042
13.507293841,-0.054037707547346735,0.00838585694630938,-0.0023109118143717577,0.1050664140198901
13.524064339,-0.0630883624156316,0.013284270962079342,0.002021153767903631,0.11488427865721403
13.540820768,-0.07153116663297016,0.012753079334894791,0.005138635635375967,0.12213280427486405
13.557578195,-0.07356786479552586,0.010818024476369202,0.009437561035156241,0.1201492425768872
13.574334889,-0.061875117321809114,0.01120061179002124,0.007042090098063151,0.11777575620736451
13.591092254,-0.03570710370937983,0.015398234128952004,-0.00753156344095865,0.11689019295382479
13.607848562,-0.0037567069133122763,0.02142821252346036,-0.02636051177978513,0.12491472964444633
13.624607045,0.01760056614875793,0.02443584799766538,-0.04122440020243324,0.12713835584981234
13.6413614,0.024784644444783514,0.021754339337348914,-0.05818239847819007,0.13510396940561806
13.658120038000002,0.02439372241497038,0.01564421753088632,-0.06525731086730953,0.1430065028635561
13.674876935,0.016035705804824826,0.009851321578025813,-0.0628704229990641,0.1441228201903631
13.691633801,0.01181273659070333,0.005826950073242184,-0.058084328969319636,0.1389408573896293
13.708390923,0.013265540202458704,0.0024590045213699224,-0.06560436884562172,0.14447061208633363
13.72514782,0.02720467001199722,-0.0003934204578399745,-0.0817303657531738,0.1444967181296458
13.741904391,0.0419200931986173,-0.0023743460575739654,-0.08545064926147457,0.13656452191625118
13.758661685000002,0.0436248928308487,-0.0051155885060628434,-0.08685310681660968,0.1343825690373437
13.775418166,0.030227611462275202,-0.003877545396486933,-0.09484903017679848,0.14283579356596246
13.7921766,0.006540246307849905,-0.00039000312487285613,-0.08905951182047524,0.1403712651378103
13.808932103,-0.01725750416517254,0.004407092928886392,-0.0757342179616292,0.12303724266167894
13.825689387,-0.0278292025129,0.012163748343785573,-0.0611621538798014,0.1131993706285182
13.842433793,-0.03095757712920502,0.021682600180307984,-0.04443359374999999,0.10311172446718675
13.859203985,-0.027547600368658665,0.028943940997123677,-0.03152704238891601,0.100787668299676
13.875954545,-0.024509914219379383,0.031956652800242055,-0.028911352157592763,0.09853162228156455
13.892717363,-0.019771593312422404,0.03410514692465459,-0.04779132207234701,0.11696707043211622
13.90946129,-0.0026507203777630987,0.03343612452348069,-0.04913457234700521,0.12532030975544636
13.926231698,0.00943316767613094,0.024868061145146655,-0.024227937062581386,0.13700979220141632
13.942988208,0.013726569712162026,0.014265991747379275,-0.02086989084879558,0.14556422088741142
13.959745299,0.015110371013482412,0.005770362913608534,-0.022723674774169932,0.14734615544745658
13.976502146,0.014597463111082717,0.0008181954423586334,-0.020170609156290698,0.14500424741795834
13.993259745,0.025796790917714443,0.003902154664198536,-0.012378215789794936,0.14111932810968675
14.010016031,0.03350801269213358,0.008997353414694442,0.010167837142944315,0.15699939476344638
14.026773123000002,0.035503978530565895,0.013963234921296407,0.009972651799519838,0.16125586135018516
14.043530284,0.042377268274625145,0.017168891926606474,-0.003004471460978205,0.16962786731328616
14.060287455,0.04247937599817911,0.016590940455595626,-0.009709755579630538,0.16662494950533055
14.077044019,0.04950481156508126,0.013667566080888094,-0.014029184977213534,0.16941414734578222
14.093801312,0.04337038596471149,0.005378690858681984,0.01220989227294922,0.15323998602429453
14.110557934,0.008127205073833459,-0.002756533523400627,0.033531506856282554,0.15050438087402618
14.127315179,-0.032245961328347526,0.0011245533823966989,0.010914882024129236,0.15094588273549883
14.144072045,-0.053172029554843896,0.012678787112236021,-0.0029729207356770718,0.15241520959201324
14.160829146,-0.06054010738929111,0.019501532117525724,0.003600438435872398,0.15488648729278867
14.177586105,-0.05969038854042688,0.019198387861251814,-0.0079801877339681,0.1635474722436342
14.194343174,-0.06055243064959842,0.01271618405977884,-0.033855120340983064,0.17586837996763427
14.211099665,-0.06022548923889794,0.0014464507500330608,-0.054166714350382485,0.1573276124675748
14.22785697,-0.06031978378693262,-0.0074182450771331674,-0.05931719144185384,0.14986797734623564
14.24461404,-0.06367300699154534,-0.008015091220537817,-0.06450724601745605,0.1530903534485513
14.261371353,-0.059253854056199394,-0.001490429043769825,-0.08087849617004395,0.17017246652293427
14.278127458,-0.05428051700194673,0.006980324784914651,-0.09363897641499837,0.18188036657673454
14.294884986,-0.043308270474274935,0.011964748303095499,-0.11700789133707683,0.19613504462510958
14.311641873,-0.018280391891797376,0.007607830067475635,-0.135512113571167,0.19397118144113565
14.328396004,-0.00226783255736033,-0.00872781376043956,-0.12812240918477374,0.18898085050413868
14.345158842,-0.005804993212223047,-0.023598330716292054,-0.13034844398498532,0.19656151421582055
14.361912616,-0.004379319647947945,-0.02554516245921452,-0.13780093193054196,0.1970120509522618
14.378669767000002,-0.0023706828554471335,-0.020644096036752053,-0.11779093742370604,0.1847774481479355
14.395427195000002,-0.0008505557974179691,-0.011763878166675559,-0.11575190226236977,0.18485021792788706
14.412183552,0.007338729997475934,-0.0025392596920331225,-0.1252472400665283,0.1964681713987965
14.428940531,0.0073953047394752355,-0.003047672410806016,-0.12040837605794268,0.19832258984766357
14.445697429,0.0039829934636751736,-0.009885224203268669,-0.11158998807271318,0.18825104367085602
14.462454895,-0.009562733272711437,-0.015712685883045186,-0.09486730893452959,0.17406831386252844
14.479211436000002,-0.02752171705166498,-0.015171520411968226,-0.08016379674275713,0.16556248944983173
14.49596868,-0.033971769114335366,-0.004586361348629005,-0.0674811999003092,0.15630168712861534
14.512725456,-0.027313925325870514,0.013481880227724702,-0.04546554883321124,0.15548382267084693
14.529482576,-0.007506606479485835,0.03272557010253268,-0.03080264727274575,0.15576187960941482
14.546239342000002,0.018606483936309797,0.044371724128723124,-0.025610367457071927,0.1441608892389533
14.562996514000002,0.037799621621767664,0.04329577088356015,-0.024029970169067372,0.14328357078384937
14.579753513000002,0.056188290317853266,0.03430176774660745,-0.022125800450642902,0.14710837393936
14.596510594000002,0.06690778334935504,0.02203153073787689,0.004028558731079094,0.13986502725064395
14.613250768,0.06034466624259946,0.01440830528736115,0.022048632303873675,0.13429097125267733
14.63002449,0.0579972962538401,0.015292545159657792,0.020468314488728816,0.1320615584930154
14.646781307,0.055934816598892184,0.01711410780747731,0.030007282892862922,0.13036759170220547
14.663538356,0.05309442679087318,0.016428892811139423,0.0384575525919596,0.1356719366067726
14.680295091,0.0519916663567225,0.012177844842274984,0.03734437624613441,0.13497650459977464
14.697052334,0.047292570273081445,0.0027662217617034916,0.05333932240804032,0.13143024969449787
14.713806118,0.032311101754506424,-0.0037783185640970843,0.06446083386739092,0.1341322614830198
14.730569424,0.023350944121678655,-0.0013394951820373494,0.06476577123006182,0.13033300097418
14.747322823,0.020096808671951294,0.0037345141172408993,0.09138019879659014,0.1424239754778166
14.76408029,0.00794654587904612,0.011917119224866218,0.11120073000590003,0.14804849734022493
14.780837207,-0.004655559857686346,0.02568078537782031,0.0995079676310221,0.1486917382406185
14.797594593,-0.014465083678563424,0.03567768136660254,0.09216499328613277,0.14209279746932688
14.814350697,-0.019674172004063902,0.035224705934524494,0.09563604990641274,0.1446552033998922
14.831107981,-0.0259693513313929,0.02729735275109606,0.10311094919840492,0.1563059858520489
14.847865113,-0.039752153058846766,0.016099892556667304,0.10146268208821613,0.17135484840325096
14.864622356000002,-0.0409280533591906,0.00601377834876377,0.09423859914143878,0.17269534249609542
14.88137554,-0.03366678208112714,-0.0025158996383349195,0.11107643445332843,0.18181372264818255
14.898139172,-0.027935740848382296,-0.0031686450044314048,0.10487016042073566,0.17522381323272693
14.914879763,-0.010015768309434243,0.004724723597367598,0.07195766766866045,0.1774094868006971
14.93165021,0.006891039510567985,0.010804104308287302,0.06486058235168456,0.18623050547432593
14.948406722,0.014726397891839356,0.015920567015806835,0.04771502812703449,0.18102430185872534
14.965163994,0.026567312578360234,0.01643223315477371,0.034946441650390604,0.17624551313492529
14.98192077,0.022018827497959127,0.0042053038875262,0.06559411684672034,0.18597756131402354
14.998678226,0.0031125545501708893,-0.005902158717314383,0.07431920369466141,0.1988716848277634
15.015434514,-0.004275639851888026,-0.0013584370414415903,0.059609889984130825,0.19542506502014856
15.032191746,0.0075224439303080036,0.010212165613969164,0.05657267570495603,0.19102980280898177
15.048948755,0.04178463170925773,0.021267443895339962,0.06243284543355302,0.19003779294685294
15.065705837,0.06565276533365245,0.027712062001228322,0.06950751940409339,0.19266923109663162
15.082462327000002,0.07315244525671001,0.029033059875170384,0.05962816874186192,0.1852850687631051
15.099219753000002,0.06789453576008475,0.024879400928815205,0.06909553209940587,0.19553709910217884
15.115974098,0.041164102653662334,0.013016407688458765,0.10078986485799148,0.1951052870407666
15.132735328,0.012322443226973194,0.005119591951370243,0.10493771235148107,0.18481570592343152
15.14949131,-0.0024329895774523515,0.0025138060251871756,0.09874939918518062,0.17397073006142275
15.166247628,-0.007093581060568502,0.003719200690587366,0.0938332080841064,0.17196803246095857
15.183004474,0.010065965354442584,0.010416870315869645,0.08234039942423499,0.16522454005797496
15.199761972,0.027274156610170987,0.010824218392372124,0.08883992830912268,0.16079787156725864
15.216518177,0.02863245705763498,0.004542633891105658,0.09445953369140621,0.16013704656938904
15.233275329,0.024643555283546437,-0.003014177083969109,0.0932180881500244,0.15730125788553642
15.250032542,0.014724671840667718,-0.003754004836082447,0.09346604347229003,0.14911908832382967
15.266789531,0.01784277955691019,0.007424687345822657,0.09412066141764319,0.1541719107598113
15.28354597,0.027368754148483266,0.02318871517976125,0.09889562924702959,0.1652557167018782
15.300290376,0.04894356429576873,0.03653002281983692,0.07913160324096676,0.1742595561386057
15.317060416,0.0766801635424296,0.05019049843152362,0.057760794957478816,0.17251372344803162
15.333817579000002,0.09501582384109496,0.053892354170481355,0.051961104075113916,0.17169375656609084
15.350573997,0.10747570296128589,0.0440324197212855,0.06012026468912759,0.17874853502594965
15.36733116,0.11445683240890502,0.02548673500617345,0.06550343831380206,0.18483907986837644
15.384088189000002,0.11691313982009884,0.011046414573987334,0.056429227193196596,0.18601002397311803
15.400845574000002,0.1363368431727091,0.005870352188746145,0.05376601219177243,0.1946173796939066
15.4176041,0.15290261805057523,0.003227864702542632,0.06742970148722328,0.20661466192764852
15.434357081000002,0.14940160512924192,0.00676089028517406,0.0622158845265706,0.20213681568209488
15.451116073,0.1323869427045186,0.012462750077247634,0.0572259426116943,0.20326536277653093
15.467873480000002,0.10492135832707083,0.011812413732210805,0.07327294349670406,0.21012411233334383
15.484629716,0.0812227701147397,0.012336502472559624,0.09362721443176268,0.22284750633439657
15.501387284000002,0.05567003538211184,0.015342563390731827,0.11400659879048662,0.21959034291584567
15.518143826,0.04177602877219516,0.013150920470555633,0.11659359931945797,0.20820967229067022
15.534900083,0.044379410644372286,0.0061720261971156,0.1193145910898844,0.21061485788592724
15.551658872,0.04792313526074091,0.0008776684602101852,0.10897684097290035,0.21461000539425104
15.568415078,0.05344315121571221,0.0034865761796633588,0.09014391899108883,0.22362810155363613
15.585171945,0.048925903936227144,0.010158633192380284,0.0926721890767415,0.21711395846487383
15.601929045,0.03052236388127008,0.02338868379592896,0.1010175546010335,0.21460506255382272
15.618685597,0.015803041557470955,0.04448481400807699,0.10059515635172522,0.21709166398424995
15.63544281,0.014120332896709444,0.061015109221140534,0.1095317999521891,0.23418889682278562
15.652200195,0.03049520899852115,0.060683379570643105,0.11075393358866371,0.23206532178574701
15.668957244,0.060398081938425684,0.04869036873181662,0.08550286293029781,0.2240189982390128
15.685713451000002,0.09892421960830684,0.026955502728621173,0.058015982309977183,0.2222249204604533
15.702470786,0.13275371491909024,-0.00024003783861795136,0.045588016510009745,0.23415235115041313
15.719227876,0.14625206092993417,-0.017046501239140806,0.03691768646240233,0.24610085677157667
15.735984988,0.14370424052079517,-0.01654721299807229,0.029167811075846335,0.24104206084874472
15.752741519,0.13098878165086109,-0.0008211384216944331,0.04075145721435544,0.23412737670588302
15.769494479,0.11280664553244907,0.022331436475118,0.0642890135447184,0.22636375842795395
15.786255537,0.09687745571136473,0.04013038674990336,0.08276422818501787,0.24299248206735222
15.803013045,0.08514570444822311,0.03936294217904408,0.07155919075012204,0.23685399645748517
15.819769322,0.09031066546837486,0.02362090349197388,0.0409135023752848,0.22808383970035787
15.836526494,0.10220718632141747,0.0031362722317377794,0.03179105122884112,0.21799539215704067
15.853283615,0.10520027826229729,-0.007534801959991442,0.04133574167887368,0.22567347164852422
15.870041,0.09258898347616196,-0.0025967458883921326,0.061420679092407206,0.22621939365422236
15.886797257,0.05504513283570605,0.015317492187023154,0.07014966011047362,0.2098751367341829
15.903554398,0.023462869226932522,0.043456733226776116,0.06968665122985838,0.1934163378008911
15.920311397,0.011345384021600076,0.06160275141398109,0.08218375841776528,0.18392816727006034
15.937068672,0.015912460784117368,0.06329178313414253,0.09732842445373534,0.19527028272834288
15.953825243,0.0305180177092552,0.05258119106292724,0.10785341262817381,0.2096684662859858
15.970582649,0.042657737930615724,0.03508008023103077,0.11408654848734535,0.21023683877433919
15.987339303,0.05716816832621888,0.023205642898877454,0.10314702987670897,0.19703321130941884
16.004096465,0.0759731531143188,0.024159063895543408,0.10606463750203449,0.19733547006092692
16.020852996000002,0.08412944773832952,0.027955139676729815,0.13444185256958005,0.19994506691166872
16.037610432,0.08503645658493038,0.028755247592926008,0.14805301030476883,0.20743929415036255
16.054367462000002,0.0837052464485168,0.025095924735069258,0.1444774468739827,0.20567676645390606
16.071124451,0.08361343542734778,0.014698276917139675,0.1389237244923909,0.20293349050259715
16.087881135,0.0905854279796282,0.004453147451082856,0.13853565851847327,0.1997248430839482
16.104638286,0.08906983087460196,-0.005680744846661899,0.14005549748738602,0.19323873788845058
16.121398113,0.07599702974160509,-0.008560667435328176,0.14144921302795407,0.19401530271822673
16.138148125,0.048426325122515344,-0.0050434221824010314,0.1462629636128743,0.19658902628981076
16.154910322000003,0.01168998703360556,0.0015494674444198459,0.14386304219563797,0.19603338627309555
16.171666293,-0.015995188305775326,0.008040050665537493,0.13707876205444333,0.19699832109100623
16.188423242000002,-0.0341348610818386,0.00870153307914732,0.13163654009501138,0.19503722183491154
16.205179772,-0.04395053163170814,0.007337932785352048,0.11907005310058592,0.1839000385030096
16.221937504,-0.0490254225830237,0.008078267176945987,0.1041763623555501,0.17213470846787807
16.238693984,-0.06223851814866064,0.009709303577740967,0.08762566248575844,0.1609508594644242
16.255451014000002,-0.0787759684026241,0.01168503860632577,0.06222613652547199,0.16416074400652486
16.27220841,-0.09172189856568969,0.008296805123488097,0.04844466845194497,0.16054879834731137
16.288964921,-0.09952419623732565,-0.0035155117511749406,0.05148212114969886,0.170790694104639
16.305721809,-0.09856942668557163,-0.01319385568300883,0.05547897020975747,0.1736397074045312
16.322478837000002,-0.08634956305225687,-0.01928519209225973,0.04766066869099933,0.16620727223636708
16.339226518,-0.04767955467104912,-0.020563125610351566,0.036425749460856104,0.169737112302591
16.355992703000002,0.0032417103648185682,-0.017481183012326568,-0.019549528757731135,0.19619783254608691
16.372749998,0.03838525712490081,-0.01156317691008251,-0.046132485071818045,0.20657149163752475
16.389506702000002,0.043315490086873375,-0.01384396851062776,-0.05296635627746581,0.19969972047459958
16.406260975000002,0.03864066551129023,-0.028583313028017688,-0.0387281576792399,0.21415211252256405
16.423020679,0.027480351428190875,-0.052485557893911995,-0.005022843678792313,0.2486935419523856
16.439777841,0.022707507014274615,-0.06892924507459004,0.005162636439005531,0.26463676726876945
16.456534586,0.02733675887187322,-0.06299258768558502,0.005442539850870762,0.2615369330868622
16.473292023000003,0.032764936486879996,-0.03491616994142533,-0.013891537984212256,0.2728495380437241
16.490048523000002,0.043626231451829284,-0.002094358205795297,-0.0436250368754069,0.27216761575789394
16.506805818,0.04382968445618948,0.007192239165306082,-0.032796303431193045,0.2784449013676928
16.523562725,0.012464997669061034,-0.006354848543802895,0.00025026003519693085,0.31706118882925177
16.54032009,-0.05793265253305433,-0.02427740146716435,-0.0023514429728190255,0.33604052448173505
16.557076459,-0.12461827943722405,-0.037403109172979974,0.03462568918863931,0.3200960531633566
16.573833621000002,-0.15155193458000815,-0.04449112464984256,0.052655140558878565,0.30041585947080107
16.590590701,-0.1297163516283035,-0.036202919979890176,0.047047773996988916,0.3150266373789574
16.607347945,-0.09253498663504917,-0.02074836939573287,0.03125437100728352,0.32668743277463497
16.624104211000002,-0.06920542071262993,-0.00646250446637471,-0.003717819849650071,0.3036565519697741
16.640845260000003,-0.06797178089618681,0.0035019889473915226,-0.022080739339192693,0.29813542339050686
16.657621617,-0.08173435181379317,-0.0001158043742179755,-0.001027981440226244,0.3012754423081864
16.674375870000002,-0.10395412892103194,-0.01777708282073336,0.0395673910776774,0.30733709335680376
16.691132086,-0.12263235325614609,-0.030332716802755972,0.06190133094787595,0.30321122873253115
16.707889218000002,-0.1177957368393739,-0.025170775751272818,0.054157257080078104,0.2973246400713807
16.724646613,-0.07951437061031659,-0.006229606767495476,0.029858827590942365,0.2677919586094315
16.741403653000003,-0.021055053919553746,0.015756656726201367,0.01813022295633951,0.23746853046926356
16.758160276,0.01948496575156848,0.028500164548555997,0.018713871637980134,0.21054759653865926
16.774913327,0.025985366354386003,0.023937885959943127,0.025163650512695302,0.20659538353604853
16.791678149000003,0.003658266117175426,0.003741204738616941,0.048950036366780574,0.2080411022143233
16.808431619,-0.03751476233204205,-0.017646638055642438,0.07133173942565914,0.20606766258202427
16.825188150000002,-0.05729150896271069,-0.027407288551330566,0.09024890263875322,0.21307144171711676
16.841945332,-0.05093861992160479,-0.03043956061204275,0.11974294980367022,0.21866948090264024
16.858702107000003,-0.033138768126567214,-0.027436474959055598,0.13944490750630692,0.22544704576719207
16.875459432,-0.011080134660005563,-0.01589398582776388,0.13964875539143876,0.21745671302586125
16.892215973000003,0.005837654074033104,-0.005635375777880362,0.14777620633443192,0.22128947412561695
16.908973329000002,0.011772140860557551,0.0018994659185409383,0.1656852563222249,0.24062250756313094
16.925730409,0.0071715240677197685,0.006429135799407956,0.1958215236663818,0.26524304572652363
16.942474611,-0.004389964044094098,0.0037513275941212913,0.22709576288859046,0.2754520008851313
16.959243675,-0.007351117829481771,-0.004571015636126197,0.2516233126322428,0.28909148176779054
16.976001295,-0.00978564967711767,-0.013940711816151937,0.2809820969899495,0.31978805751105127
16.992758182,-0.013775068024794265,-0.017495083312193547,0.2868448893229166,0.32752988031627667
17.009515353,-0.00844670087099076,-0.012326404452323919,0.2915276686350504,0.32729785665271555
17.026271977,-0.01474526276191076,-0.001665947337945297,0.30604187647501624,0.33748182942561494
17.043028975000002,-0.014739396671454108,0.013939070204893744,0.3029610315958659,0.3319822144105708
17.059786147,-0.007591299712657926,0.02403041968743005,0.30707001686096186,0.3382492517389782
17.076543107000003,-0.0012912179032961585,0.01943209022283553,0.3168340524037679,0.3467505775471249
17.093299789,0.0078713521361351,0.0061598146955172085,0.3191189765930175,0.3457630381030879
17.110057043,0.007304626206556951,-0.009562052786350249,0.31779249509175617,0.34037608526011415
17.126811276,0.0077013199528058315,-0.018965062995751698,0.29489533106486004,0.3170254425629582
17.14357388,0.01720621436834335,-0.01905531932910283,0.29980492591857905,0.3240116127100076
17.160327369,0.012684953709443421,-0.01072869946559271,0.3242052396138509,0.3485641459754308
17.17708503,0.015977782507737483,0.009913432101408624,0.30550646781921387,0.33083519159034086
17.193841896000002,0.024255248407522842,0.031196147203445417,0.30552570025126136,0.32592297591997754
17.21059919,0.021819772819677993,0.0393896698951721,0.3143805662790934,0.33287412418725
17.227355376000002,0.019661813974380497,0.037042751908302286,0.300979216893514,0.3226117379532818
17.244112568000002,0.008445759614308672,0.0209316462278366,0.3066875139872233,0.33369387458048827
17.260869791,-0.0038216213385264004,0.001382489999135333,0.31076232592264813,0.33755613365508436
17.277626994000002,-0.013646100958188362,-0.0045734792947769035,0.31516273816426593,0.3414219767300713
17.294383504000002,-0.026247436801592496,0.0010297050078709989,0.31752586364746094,0.3424979250644761
17.311140595,-0.025366549690564455,0.013327663143475848,0.3120381832122803,0.34049521490398543
17.327897514,-0.023458227515220628,0.022975717981656388,0.33255211512247723,0.36211928388930387
17.344654909000003,-0.026227156321207663,0.02609218160311381,0.3412027359008789,0.3699657395275828
17.361411450000002,-0.015124226609865815,0.023183857401212055,0.3248435656229655,0.3547417767038213
17.378168714,-0.008210932215054827,0.01276548206806184,0.33479793866475416,0.36243168950477633
17.394925408000002,-4.8607587814336835e-05,0.0025001118580500483,0.33917848269144696,0.36687876565179495
17.41168258,0.016344487667083726,-0.0003694345553715862,0.32996678352355957,0.3586835002593505
17.428439345,0.03565315405527748,-0.0008655985196431235,0.3414676984151204,0.3665572221174762
17.445196548000002,0.044746796290079716,0.003631313641866062,0.35651524861653644,0.3763675280674514
17.461953394000002,0.04225231707096098,0.00996565818786623,0.35713958740234375,0.376024277301271
17.478710647,0.04297664264837898,0.01129577557245892,0.3561799526214599,0.3749743836544277
17.495467189000003,0.04421699543793994,0.009919951359430959,0.36678067843119294,0.3847571481387268
17.512224239000002,0.04730745156606037,0.007560322682062789,0.37259705861409503,0.38964853746121314
17.528982621,0.0524597515662511,0.002621496717135115,0.36321298281351727,0.381702656469272
17.545737301000003,0.05613330006599424,-0.003679970900217693,0.3493622938791911,0.36920650383797965
17.56249489,0.053098946809768656,-0.00911840796470642,0.3541575272878011,0.3730656193673226
17.579252408000002,0.04385308921337127,-0.013173595070838926,0.3600804805755615,0.37886757841647517
17.596009408,0.037371665239334086,-0.010420252879460648,0.36079128583272296,0.3785580048483062
17.612761676,0.026990016301472967,-0.0017309784889221237,0.37426503499348956,0.39010868774554486
17.629527759000002,0.022038464744885754,0.011356949806213356,0.38019633293151855,0.39480985957972986
17.646280314000002,0.027209500471750886,0.021810089548428824,0.37902331352233887,0.3929872980564244
17.663036935,0.027485261360804227,0.024394353230794242,0.37066841125488276,0.38457412020024623
17.679794626,0.02908047537008919,0.02017195522785185,0.34230724970499665,0.35746616816017734
17.696550731000002,0.03243253131707506,0.007779339949289951,0.3349942366282144,0.3504339368914406
17.713308005000002,0.019147569934527056,-0.011136730511983236,0.3503259023030598,0.36425092390162717
17.730065156000002,-0.0031196971734364933,-0.02461139857769011,0.355262279510498,0.3673845570587713
17.746822491,-0.025858357548713694,-0.027577762802441882,0.3581504027048746,0.3687087726213633
17.763578788,-0.03151820103327433,-0.017748822768529238,0.3495890299479166,0.3605910865267596
17.780335879000003,-0.014072820544242868,0.002620235085487368,0.3463772137959798,0.3638662297003572
17.797093052,-0.000546733538309733,0.019334514935811353,0.35124524434407545,0.37478477852549874
17.813850182,0.013597408930460601,0.025377785166104627,0.33702206611633295,0.36464664062387797
17.830606875,0.019588698943456,0.01862294475237529,0.3199381828308105,0.34862435607602377
17.847363804,0.02400080362955728,0.008133674661318473,0.3031902313232422,0.3339711404441899
17.864120803000002,0.035157158970832804,-0.0004899899164835497,0.30675045649210614,0.338667149867207
17.880878321,0.027961437900861086,-0.008180936177571605,0.33342425028483075,0.36710994446849265
17.89763473,0.014535474280516296,-0.008734429876009616,0.3273736635843913,0.3643822932620746
17.914376461,0.012221626937389362,-0.00039929648240406905,0.3173513412475586,0.35378083252306974
17.931148759000003,0.018406180044015227,0.008387838800748183,0.31182432174682617,0.3461785036164529
17.947906206000003,0.040883469084898615,0.012576848268508897,0.30164504051208496,0.33853544963212956
17.964662371000003,0.049148567020893076,0.004475891590118398,0.30255524317423504,0.33978639345135947
17.981420529,0.04409638295571008,-0.010705764094988503,0.2882351080576579,0.3211013941752678
17.998176043,0.039468931655089044,-0.02369881172974905,0.27901721000671387,0.30765233339308656
18.014933836,0.029588205118974035,-0.031796062986056015,0.27844802538553876,0.30298292679961597
18.031690641,0.023016604284445435,-0.02711410323778789,0.26670368512471515,0.2905479406790663
18.048447713,0.009613059461116793,-0.020607123772303265,0.2708791097005208,0.293595263785501
18.06520464,-0.004467688500881184,-0.017184098561604827,0.26913102467854816,0.2922622984260435
18.08196172,-0.0022333189845084984,-0.011614263057708749,0.25515302022298175,0.27725544445115524
18.0987182,-0.00045756995677946843,-0.009062041838963832,0.2508181730906169,0.2721229231339286
18.115475414,0.008879984418551132,-0.00896641115347545,0.23012797037760413,0.25089290684914595
18.132232698000003,0.022575795650482167,-0.008089313904444383,0.2305597464243571,0.25363579237098505
18.148990011,0.014563490947087606,-0.008799175421396903,0.24328017234802246,0.26265585096933747
18.165746055,0.011590063571929932,-0.008238787452379876,0.22413237889607743,0.24401910407430003
18.182503684,0.014994591474533081,-0.009249905745188402,0.21453070640563962,0.24066672656125573
18.199260643,0.02387295663356781,-0.010445192456245422,0.21055444081624344,0.24181016075309789
18.216017622000003,0.03622989356517792,-0.010040288170178735,0.2074814637502034,0.2432938348346525
18.232774326,0.04011436800161997,-0.015629544854164117,0.22037903467814124,0.25609208107542797
18.249531315,0.04131725430488587,-0.023029605547587078,0.22328305244445798,0.2597642251273749
18.266275385,0.04097312192122141,-0.024898062149683625,0.21457131703694657,0.2528404568379173
18.283045679,0.04410064220428466,-0.025061453382174154,0.2165565490722656,0.2538860971010533
18.299802251000003,0.04919363558292388,-0.026029343406359342,0.22532351811726883,0.26022783772392405
18.316559251,0.04383117953936259,-0.027461821834246298,0.22809410095214835,0.26338109823280503
18.333316189,0.031593933701515205,-0.028086632490158057,0.21720870335896802,0.25013180426381143
18.350073675,0.026345138748486846,-0.028222486376762362,0.21310909589131666,0.24565843588419686
18.366829861,0.015961830814679483,-0.02712318797906237,0.23364647229512525,0.26463919632734223
18.383584155,-0.0013274500767389678,-0.025088076790173826,0.2514172395070393,0.2741183481243457
18.40034741,-0.01920019090175626,-0.026123836636543257,0.2480905055999755,0.2638494414437821
18.417101317,-0.026913235584894796,-0.026301637291908247,0.23524451255798332,0.24897365985666023
18.433858133,-0.0159808446963628,-0.023417507608731583,0.2224538326263427,0.24575546598810946
18.450615263,-0.0010044276714324882,-0.01885307331879933,0.2093597253163655,0.2340521414031879
18.467372273,0.007888143261273716,-0.017246554295221966,0.2009939352671305,0.22370780387522796
18.484129292,0.0032588094472885236,-0.019155517220497135,0.18900831540425614,0.2164558072002174
18.500885721,0.004242812593777991,-0.01883230606714884,0.17581200599670407,0.20396849934662042
18.517643118,0.01547676821549735,-0.016746247808138534,0.18664646148681638,0.21546168118826367
18.534400178,0.027210916082064312,-0.017266283432642627,0.19199736913045243,0.22348797105009008
18.551157603,0.04632916549841562,-0.015349129835764572,0.16354123751322425,0.21508693284156635
18.567913627000003,0.07233683268229164,-0.015351171294848127,0.141103982925415,0.20852131555252199
18.584670901000003,0.09385301669438678,-0.023134117325146992,0.13340218861897782,0.20869505404559704
18.601428001,0.10273880263169605,-0.031617964307467133,0.12632012367248535,0.20733898884488625
18.618185662,0.09438164035479225,-0.03903668125470478,0.1289842128753662,0.20930894170958092
18.634938846,0.07199997206528982,-0.04194175203641253,0.13556679089864096,0.20738498196695457
18.651701786,0.0592758059501648,-0.036329676707585634,0.1401854356129964,0.20924433979179582
18.668446772000003,0.05806670089562734,-0.026252632339795426,0.14494061470031736,0.21211741270216558
18.685210352,0.06595028936862944,-0.018327762683232617,0.14337166150410968,0.20459333616879585
18.701972732,0.06592380503813425,-0.015422890583674105,0.14460595448811847,0.20481852184826907
18.718727025,0.056729535261789955,-0.01855253179868062,0.1337790489196777,0.19325042135103057
18.735483588,0.05290409425894419,-0.022533213098843874,0.13845992088317868,0.1963057577498728
18.752241268,0.03542215625445049,-0.026605193813641844,0.16971611976623532,0.20748749244259657
18.768997626,0.0176064968109131,-0.023091917236645994,0.17904575665791825,0.20167605679998046
18.785754951,0.008554006616274526,-0.013145486513773584,0.17649944623311356,0.1933454778891476
18.802511635,0.011954322457313545,-0.004995887478192634,0.17649602890014646,0.1936960513961747
18.819260099,0.0276777446269989,-0.0020648588736851834,0.16871166229248044,0.1961575599383432
18.836025501,0.041952192783355706,-0.007048899928728717,0.16048701604207352,0.19271916973096245
18.852782825,0.049892808000246675,-0.020688558618227607,0.15539725621541337,0.1923059180986226
18.8695396,0.05255052944024403,-0.03592416147390998,0.15343983968098954,0.19478934931458644
18.88630311,0.05230123798052468,-0.04346865415573115,0.15939291318257645,0.20280555910650644
18.903053487,0.061514104406038904,-0.043645635247230495,0.15783294041951493,0.20247851754718812
18.919808126,0.07797988255818682,-0.036954427758852604,0.15830230712890622,0.20981751004272642
18.936569968,0.08428214490413662,-0.02688826620578763,0.1515881220499674,0.20750546591929522
18.95332484,0.09163766602675116,-0.019278834263483657,0.12575968106587723,0.18922280334859734
18.9700813,0.09521137177944182,-0.018082251151402762,0.10902722676595049,0.18202227714457986
18.986838686,0.09276618063449855,-0.02088363965352374,0.10170022646586097,0.1743951536773305
19.003595818,0.08467873434225716,-0.024737382928530338,0.10669422149658199,0.17434187089273298
19.020352633,0.06712018450101213,-0.029886821905771854,0.12719885508219397,0.18446074311346036
19.037093733000003,0.047964423894882195,-0.032114684581756564,0.132635752360026,0.19111671107105008
19.05386653,0.03776574134826659,-0.027507310112317374,0.12413867314656574,0.18399714649486523
19.070623631,0.03809617956479389,-0.020983661214510566,0.1252318223317464,0.18138745075125354
19.087380823,0.039709930618604,-0.01826261480649309,0.12358951568603514,0.17866198163447863
19.104136998,0.033770635724067674,-0.019983674089113848,0.11746263504028316,0.17251461961872636
19.120894557,0.01969601710637409,-0.026688516139984093,0.1224393844604492,0.1704329543931085
19.137651373,0.0038693149884541727,-0.03672999143600459,0.1282072067260742,0.17102538613544024
19.154407467,-0.0038939068714777757,-0.04180330534776048,0.12883806228637693,0.1645315130966806
19.171162919,-0.0030007064342498905,-0.04324556390444433,0.1383721033732096,0.16758340790396134
19.187925402,0.00017616649468738324,-0.04152306417624151,0.14803663889567054,0.17730442516729875
19.20467938,0.009310310085614509,-0.03620600203673042,0.1425858338673909,0.17802573787930828
19.221436623,0.024335498611132277,-0.029351835449536606,0.13592362403869626,0.17339722886515682
19.238191903,0.04200054208437599,-0.02512025336424507,0.1392114162445068,0.17109103494045155
19.254951313000003,0.053837706645329754,-0.021622007091840072,0.13889630635579425,0.1686288336812125
19.271707142,0.06113832195599871,-0.019266684850056937,0.13577167193094888,0.16720237031387966
19.288464457,0.0670950611432393,-0.02106875181198117,0.13423546155293778,0.16835709712646932
19.305220642,0.06998608012994127,-0.02509383360544838,0.13230768839518225,0.17189489553677303
19.321978272000003,0.06865563491980231,-0.029139444231986982,0.12513367335001624,0.16694381525459198
19.338734924,0.06618175903956092,-0.03356751799583433,0.12150168418884273,0.16505099597906328
19.355504681000003,0.05972134073575334,-0.04059712092081704,0.1306052207946777,0.1755730425424116
19.372248831,0.0499606778224309,-0.04430829981962838,0.12529333432515458,0.16656873192736174
19.389006156,0.054468164841333995,-0.04068377614021299,0.11483677228291826,0.16478702792290806
19.405763044,0.0592434207598368,-0.035504276553789745,0.11997429529825843,0.17259522692435306
19.422520368,0.06062340736389158,-0.027930090824762967,0.10921112696329749,0.16754079372757855
19.439259565,0.06225624680519101,-0.02145645022392273,0.09204475084940589,0.1598831270357555
19.456034031,0.05773642659187314,-0.023080517848332715,0.09113303820292151,0.15813427541749706
19.472791091,0.04978367686271665,-0.0271963228782018,0.08661063512166339,0.1541663166722857
19.489548201,0.04239494105180102,-0.02723502616087596,0.0772876739501953,0.14740379725329006
19.506304621,0.045757631460825586,-0.025479336579640716,0.07879654566446938,0.1480316702716414
19.523062047,0.04884649316469827,-0.025468046466509502,0.07882547378540036,0.14838905965491103
19.539818852,0.05702112118403115,-0.02598405381043752,0.06574773788452146,0.13775327050320468
19.556572648,0.06807215015093483,-0.030225167671839387,0.06264408429463703,0.1371395462956132
19.57333566,0.07268342375755306,-0.038644095261891685,0.07228112220764157,0.14880145220743682
19.590089647000003,0.06553360819816587,-0.04480239252249399,0.06865525245666501,0.13976897770820526
19.606847227000003,0.05933371682961779,-0.04755409558614095,0.0529674688975016,0.12838923616564218
19.623604195,0.05975916484991706,-0.04975780347983042,0.06196864446004228,0.13338695633929692
19.640360674,0.054266939560572276,-0.05082373321056366,0.08335852622985836,0.14322766380329455
19.657117614,0.046667903661727884,-0.04546865820884705,0.08332880338033037,0.14439317334116802
19.673874663000003,0.04200668632984159,-0.03639994064966839,0.07292946179707842,0.1400479935115087
19.690631967,0.04706311722596484,-0.02896482745806378,0.08608198165893553,0.14755226590815615
19.707388530000003,0.045206502079963636,-0.025070225199063642,0.09405477841695148,0.1501027054035508
19.724145884,0.052709524830182354,-0.021007304390271524,0.0745290915171305,0.1514094790493049
19.740902618,0.061811457077662106,-0.02069053550561271,0.06890201568603511,0.15532243774670154
19.757659782,0.06372542679309841,-0.022434785962104815,0.06727131207784014,0.15615767203171446
19.774416393000003,0.06657843291759487,-0.024777943889300037,0.06327335039774573,0.15555170972258656
19.791173718,0.061609536409378024,-0.034686937928199775,0.068045695622762,0.16080890988157737
19.807917107,0.053485393524169894,-0.04185803234577178,0.07196903228759761,0.15354989380076664
19.824690778,0.04665879408518469,-0.040252745151519755,0.05995376904805497,0.14196214802994675
19.841441002,0.05913414061069484,-0.03205753862857818,0.039278030395507764,0.14073089970413685
19.858204747,0.07972491780916845,-0.025851498047510763,0.03258156776428218,0.15053083586303947
19.874958622,0.08846781154473617,-0.02566931645075479,0.03622643152872716,0.1487390930783459
19.891715824,0.082471286257108,-0.030554572741190566,0.017902215321858688,0.14088833480013085
19.908472418,0.08097622791926062,-0.035869260629018115,0.0031402111053466584,0.1383431887664316
19.925229325,0.07223566373189286,-0.04166442652543385,0.023026386896769172,0.1381893487465681
19.941986282,0.06527673701445258,-0.04214853048324583,0.030998627344767226,0.1365632612431118
19.958743698000003,0.06847915550072985,-0.03436122337977089,0.020635207494099913,0.13139164588520705
19.975500231,0.07518479724725084,-0.02521660923957823,0.013876438140869125,0.12963485852286177
19.992257341,0.08098790546258287,-0.014365037282307933,0.017535448074340806,0.12932604804244555
20.009014136,0.07782540718714391,-0.012953167160352067,0.016811529795328767,0.1263049196818809
20.025758634,0.07484981914361315,-0.020794784029324845,0.010874509811401367,0.12297343886020627
20.042535938,0.06343860427538549,-0.032591814796129846,0.01993378003438313,0.11403563588002437
20.059275511000003,0.05058330297470087,-0.04217635591824847,0.03699835141499836,0.11021156583667678
20.076042317,0.04464855293432867,-0.046498348315556805,0.04220000902811686,0.11235508264681181
20.092799345,0.044760261972745206,-0.04439069330692288,0.04384692509969076,0.10986773875694222
20.109556060000003,0.041570976376533474,-0.03478333850701648,0.0418864885965983,0.10724300547068481
20.126313223,0.04808382193247474,-0.02351642648379006,0.03280623753865559,0.10143322312560582
20.143067556,0.05301964282989499,-0.018728519479433676,0.03528094291687011,0.10377086376742145
20.159830068,0.0491648217042287,-0.02297585209210712,0.04093956947326658,0.10378144159906727
20.176583782,0.043892761071523005,-0.026866535345713274,0.03302645683288573,0.10165008280360745
20.193341025,0.05120263497034705,-0.031219090024630188,0.021187305450439453,0.10567111874293215
20.210098218,0.06393445531527199,-0.03193604946136471,0.02222442626953124,0.11711589723519601
20.226855533,0.06484802067279813,-0.03302504122257228,0.031998713811238595,0.12067614167701586
20.243611982,0.06027783950169879,-0.03673421343167618,0.024649222691853837,0.11995252901109264
20.26036893,0.06118045250574747,-0.04094352821509039,0.004846970240275059,0.11812277011893002
20.277126092,0.06435607373714443,-0.04135946432749426,0.0029456615447997943,0.11662276869964965
20.293883255,0.06349838773409522,-0.04166937371095017,0.005781730016072576,0.11614640439470984
20.310639836,0.06203423937161761,-0.046370486418406125,0.0022726058959960833,0.1198503530560091
20.327396998,0.051841393113136285,-0.052492236097653654,0.0002981821695963603,0.11614509717245038
20.344153754,0.04291469355424244,-0.05505132675170893,0.0003376007080078183,0.11344917243214492
20.360911301,0.038750742872556046,-0.04930058618386581,0.0023841857910156263,0.10979029524549973
20.377667873,0.03767171502113341,-0.042044326663017224,0.01120201746622721,0.10641367207745184
20.394424944,0.03188769022623698,-0.03603560229142503,0.01436034838358561,0.10026421391435543
20.411181861000003,0.02970626453558603,-0.031738325953483554,0.008367776870727544,0.0981820737048893
20.427939146,0.03330120444297789,-0.031056180596351596,0.0027629534403483106,0.09803092522478292
20.444695616,0.03390945494174956,-0.033207585414250666,-5.7856241861973384e-05,0.10072698263316286
20.461452676,0.021814162532488506,-0.03827726592620211,0.007024208704630545,0.10570879125762471
20.478209675,0.005037258068720509,-0.04711911578973132,0.011298338572184258,0.12198238690345631
20.494966949,-0.001030693451563508,-0.05240831275780992,0.01961612701416017,0.13263710935486175
20.511723612,-0.0060069014628728185,-0.052480295300483676,0.04349819819132487,0.13847364729827238
20.528480897,-0.004734267791112253,-0.04615383346875507,0.048309008280436196,0.13838668977995214
20.545237590000003,0.005917578935623175,-0.03510903815428415,0.024910529454549152,0.1440068016186354
20.561982992,0.022996629277865107,-0.029678250352541607,0.009067455927530934,0.1585073228791286
20.578751577,0.031621331969896964,-0.0336971233288447,-2.233187357583132e-05,0.16746998329370924
20.595508984,0.029668286442756663,-0.043104882041613245,-0.00560092926025389,0.16984773209037804
20.612265789,0.008557309707005837,-0.05805807560682295,0.0013424555460612084,0.17464051533935035
20.629022809,-0.015660256147384612,-0.06768902142842609,-0.00167441368103025,0.18614556879510155
20.645779279000003,-0.022997478644053118,-0.06638239324092864,0.01331233978271486,0.1921296979686138
20.662536624,-0.02320448060830432,-0.059177013734976434,0.033273220062255866,0.19880017327608113
20.679293715,-0.009016906221707642,-0.04600724081198373,0.02066516876220704,0.18277645386915264
20.696050755,0.007471357782681798,-0.03403800229231516,0.007662534713745131,0.17870866939581734
20.712807204,0.021633123358090724,-0.031011035044987992,-0.01136517524719236,0.17146656626954546
20.729564671,0.029360170165697738,-0.03523387014865874,-0.03011131286621091,0.1829183527441257
20.746321345,0.01707137127717337,-0.0483534236749013,-0.018374443054199194,0.17313240267359833
20.763078863,-0.01120802263418833,-0.06331216543912883,0.0020289421081543164,0.16934818903279422
20.779835078,-0.0443370739618937,-0.06840747346480684,0.01362514495849611,0.17328390477654645
20.796592343,-0.05995189646879829,-0.0638898039857546,0.021378914515177424,0.1725307214878339
20.813348436,-0.04982489347457885,-0.04993457098801926,0.01899822552998862,0.15760466780009713
20.830107836,-0.02757215003172556,-0.034654927750428485,0.00919270515441895,0.15054468999924903
20.846863096,-0.009826535979906717,-0.023733663062254565,-0.009380181630452464,0.14692180158545146
20.863620248,0.003073622783025096,-0.025553283592065157,-0.022466739018758133,0.1342894817307067
20.880377307,0.002139026920000709,-0.03878501057624814,-0.01577107111612956,0.1416064309698974
20.897134653,-0.0146732230981191,-0.05494086692730581,-0.00879430770874024,0.14653801855357368
20.913891234,-0.030071412523587537,-0.06507993489503855,-0.0026310284932454576,0.15056544189583906
20.930648508,-0.04135858515898385,-0.06648156791925426,0.004798809687296536,0.14331489663505695
20.947405162000003,-0.039790481328964226,-0.05915309240420655,-0.000371217727661149,0.14135779808880405
20.964159821000003,-0.026973585287729904,-0.04988325635592139,-0.017786105473836276,0.1308309915979371
20.980919109,-0.004063874483108532,-0.04683366417884823,-0.027567386627197276,0.11807922548515427
20.997676394000003,0.003660157322883592,-0.04729795952637988,-0.025903065999348968,0.11278498041613695
21.014433311,0.0038349578777948892,-0.0474538207054138,-0.0226879119873047,0.11576277947194606
21.031190533,-0.0004549622535705682,-0.04855462412039437,-0.004750331242879249,0.10906612522494308
21.047947014,-0.003245015939076752,-0.049516181151072175,0.0012452602386474497,0.10391263508978033
21.064701083000003,0.008296107252438857,-0.04134118060270945,-0.015000104904174806,0.111678586352244
21.081464288000003,0.020767067869504285,-0.03352228055397668,-0.022832314173380525,0.11173801999478405
21.09821851,0.0315626263618469,-0.030886019269625323,-0.031057357788085927,0.10788794748513401
21.11497258,0.03749637802441913,-0.03378351777791975,-0.03613964716593423,0.10853856703916892
21.131734664,0.03582391142845154,-0.04213751852512359,-0.029329697291056292,0.1130106664898845
21.148488948,0.029838110009829198,-0.05012182891368865,-0.01309347152709959,0.12106551461008529
21.16524611,0.014443854490915932,-0.05326020220915476,0.00275357564290366,0.12916873538436627
21.182002935,0.006615693370501219,-0.05020044247309366,-0.0021108786265055164,0.1316534362290355
21.198759772,0.010837723811467498,-0.04546088973681131,-0.01603468259175617,0.13785861952373613
21.215517219,0.015207673112551383,-0.04296838740507761,-0.033145666122436496,0.14689979079761897
21.232274208,0.025500069061915088,-0.03914245963096617,-0.04474965731302894,0.15452489245029255
21.249030565,0.018953904509544383,-0.039753531416257204,-0.026923418045043918,0.16388078892179636
21.265788044,-0.004063854614893581,-0.04478011528650918,-0.013944784800211578,0.1562004213424822
21.282545032,-0.018125499288241056,-0.04249083499113717,-0.014125188191731752,0.15122849231039823
21.299302356,-0.016915539900461813,-0.03647908568382262,0.0018305778503418038,0.1508750426983277
21.316058563,-0.0033292820056279432,-0.02854671825965244,-0.0031807422637939336,0.15261593439880536
21.332800527,0.020107254385948185,-0.020412892103195177,-0.017328023910522454,0.1621623744433126
21.349572927,0.03170113265514373,-0.02043831845124561,-0.02827612559000649,0.1589224653979515
21.366330171,0.04096762835979462,-0.02579324940840402,-0.050539096196492495,0.15960487080616456
21.3830866,0.039792358875274665,-0.034669170777002954,-0.04975771903991697,0.16318940848125799
21.399843710000003,0.03056107461452485,-0.04700079560279844,-0.0299544334411621,0.16771770468316746
21.416600832,0.017300029595692965,-0.056921030084292064,-0.005334695180257166,0.17010491534313002
21.433358156,-0.0013986676931380948,-0.0621200601259867,0.007784446080525702,0.16577285149509272
21.450110984,0.0023281772931417074,-0.05489990115165707,-0.011250893274943033,0.15887173557857773
